timestamp,accel_x,accel_y,accel_z,gyro_x,gyro_y,gyro_z
0,232,-2032,-320,-8,67,2
5,240,-2040,-344,-10,66,-1
10,240,-2032,-344,-6,65,1
15,256,-2032,-320,-4,66,-2
20,264,-2032,-336,-2,63,-2
25,224,-2032,-320,-2,64,-4
30,240,-2040,-352,-2,65,-3
35,224,-2024,-320,-4,66,-5
40,224,-2016,-328,-4,64,-2
45,240,-2032,-328,-3,64,-4
50,232,-2016,-344,-4,64,-1
55,240,-2016,-304,-6,62,-3
60,232,-2008,-328,-11,62,-1
65,232,-2000,-304,-16,62,-2
70,208,-2008,-312,-21,62,-1
75,240,-2024,-312,-27,62,-4
80,224,-2008,-336,-29,63,-3
85,248,-2032,-352,-31,64,-6
90,248,-2008,-320,-32,67,-4
95,240,-2016,-328,-32,67,-6
100,232,-2008,-336,-32,65,-4
105,264,-2024,-352,-31,64,-5
110,240,-2016,-336,-29,64,-4
115,240,-2008,-328,-27,66,-5
120,240,-2024,-352,-25,66,-2
125,256,-1992,-352,-23,63,-5
130,256,-2000,-352,-21,60,-3
135,248,-2000,-344,-16,60,-5
140,248,-2000,-352,-13,57,-1
145,240,-2008,-320,-15,58,-6
150,248,-2008,-352,-18,59,-5
155,264,-2008,-352,-21,61,-6
160,264,-2000,-376,-27,62,-6
165,264,-2016,-328,-30,62,-6
170,248,-2008,-360,-34,62,-4
175,240,-2000,-352,-35,59,-5
180,232,-1984,-336,-36,58,-3
185,264,-1984,-344,-37,55,-7
190,240,-1976,-336,-38,53,-6
195,224,-1984,-376,-41,52,-8
200,256,-2000,-344,-41,50,-7
205,256,-2016,-344,-41,48,-12
210,248,-2024,-320,-37,46,-11
215,280,-2048,-336,-36,46,-14
220,232,-2024,-344,-33,47,-13
225,280,-2008,-344,-33,49,-15
230,264,-2008,-344,-33,50,-13
235,240,-2008,-360,-32,53,-16
240,240,-2024,-352,-32,55,-13
245,240,-2016,-328,-31,57,-14
250,240,-2032,-352,-27,58,-14
255,256,-2024,-336,-23,61,-15
260,240,-2016,-344,-21,62,-15
265,240,-2016,-312,-20,61,-14
270,248,-2008,-352,-20,62,-14
275,256,-2024,-344,-21,61,-14
280,264,-2008,-336,-21,61,-11
285,240,-2016,-336,-23,61,-11
290,256,-2024,-336,-22,58,-9
295,264,-2032,-352,-20,57,-11
300,248,-2024,-336,-18,57,-10
305,256,-2016,-344,-17,56,-9
310,256,-2040,-328,-15,56,-9
315,248,-2024,-320,-15,56,-12
320,240,-2040,-336,-12,57,-9
325,264,-2008,-376,-11,56,-10
330,256,-2016,-336,-9,55,-10
335,240,-2024,-360,-8,56,-12
340,256,-2032,-344,-7,56,-9
345,224,-1992,-344,-9,57,-10
350,224,-2024,-368,-12,58,-9
355,216,-2000,-360,-13,60,-9
360,248,-2040,-344,-14,60,-6
365,240,-2040,-336,-15,60,-6
370,240,-2024,-360,-15,62,-7
375,224,-2024,-368,-16,64,-8
380,224,-2008,-360,-17,65,-4
385,240,-2032,-368,-17,66,-6
390,248,-2016,-376,-18,65,-3
395,240,-2000,-344,-18,64,-4
400,240,-2000,-360,-18,66,-3
405,248,-2000,-344,-18,64,-3
410,256,-2016,-360,-19,65,-3
415,248,-2000,-352,-19,64,-3
420,240,-2032,-344,-18,66,-1
425,256,-2024,-360,-19,66,-3
430,256,-1992,-344,-18,67,-2
435,256,-2008,-344,-17,67,-2
440,264,-2000,-320,-17,67,0
445,256,-1992,-384,-17,67,-1
450,264,-2000,-344,-17,67,-1
455,232,-1984,-352,-17,67,-1
460,248,-1976,-376,-17,67,-1
465,240,-1992,-328,-17,67,-2
470,256,-2024,-320,-18,68,-1
475,248,-2016,-328,-19,68,-2
480,248,-2024,-344,-17,66,-1
485,248,-2000,-344,-17,65,-1
490,224,-2008,-344,-17,64,-1
495,248,-2008,-352,-18,64,-3
500,256,-2024,-328,-17,65,-3
505,256,-2000,-312,-15,64,-2
510,232,-2016,-344,-13,63,-5
515,248,-2040,-360,-15,64,-6
520,256,-2032,-352,-18,64,-6
525,248,-2016,-344,-20,63,-7
530,248,-2048,-336,-20,63,-8
535,248,-2016,-352,-20,66,-7
540,256,-2032,-360,-18,65,-7
545,264,-2000,-328,-17,65,-6
550,248,-2016,-352,-15,66,-8
555,256,-2048,-344,-13,67,-6
560,248,-2024,-344,-11,67,-4
565,232,-2008,-344,-8,67,-2
570,312,-2024,-272,-3,66,-2
575,272,-2056,-264,-2,65,-2
580,264,-2016,-328,-1,62,-1
585,232,-2016,-336,-3,61,-1
590,232,-2024,-344,-4,60,-1
595,240,-2008,-336,-6,58,0
600,256,-2032,-352,-7,58,-1
605,248,-2040,-360,-7,59,1
610,264,-2032,-360,-5,60,-1
615,232,-2024,-336,-4,62,1
620,240,-2008,-352,-2,63,0
625,248,-2016,-352,-1,64,3
630,256,-2032,-344,1,66,1
635,240,-2016,-384,1,66,3
640,256,-2016,-376,3,68,2
645,224,-2008,-360,3,66,4
650,248,-2000,-376,1,67,3
655,248,-2008,-368,0,66,4
660,240,-1992,-368,-2,64,3
665,256,-2000,-368,-4,65,3
670,264,-2016,-376,-6,64,2
675,232,-1992,-328,-9,63,4
680,240,-1992,-344,-13,62,2
685,256,-2000,-336,-15,61,4
690,256,-1992,-304,-19,59,2
695,224,-1992,-328,-21,58,4
700,248,-2016,-312,-24,57,1
705,248,-2000,-312,-24,55,3
710,240,-2008,-312,-27,53,1
715,232,-2016,-360,-29,49,1
720,248,-1992,-344,-28,47,1
725,256,-2032,-336,-31,45,1
730,256,-2008,-360,-31,43,-2
735,240,-2016,-360,-30,42,-2
740,240,-2000,-376,-28,43,-3
745,272,-2024,-360,-25,44,-2
750,256,-2032,-376,-25,46,-4
755,232,-2016,-352,-26,47,-1
760,232,-2008,-344,-27,48,-2
765,224,-2032,-352,-27,49,0
770,256,-2040,-352,-29,50,-2
775,240,-2032,-376,-30,50,0
780,248,-2056,-360,-28,51,-2
785,232,-2016,-352,-25,52,1
790,256,-2024,-376,-23,52,-1
795,256,-2016,-360,-23,50,0
800,240,-2016,-336,-24,50,-3
805,248,-2000,-360,-24,48,1
810,232,-2024,-328,-26,48,0
815,248,-2008,-320,-24,46,2
820,232,-2024,-328,-25,43,1
825,240,-2032,-344,-26,43,4
830,240,-2016,-328,-25,42,1
835,240,-2000,-360,-26,41,4
840,256,-2016,-352,-27,41,1
845,264,-2040,-360,-27,41,3
850,248,-2016,-320,-27,41,1
855,240,-2016,-336,-28,42,3
860,272,-2016,-328,-29,42,0
865,240,-1984,-336,-29,44,2
870,232,-1992,-360,-29,46,-1
875,232,-1984,-368,-29,48,2
880,240,-2016,-352,-29,50,0
885,256,-2016,-368,-28,53,2
890,248,-2024,-376,-28,54,0
895,272,-2048,-352,-26,56,2
900,248,-2024,-368,-26,57,0
905,256,-2016,-352,-24,57,2
910,248,-2008,-328,-23,58,-2
915,248,-2040,-336,-19,57,0
920,240,-2024,-368,-21,56,-3
925,240,-2016,-368,-20,55,-2
930,240,-1992,-344,-21,54,-5
935,216,-2032,-376,-20,54,-2
940,232,-2024,-344,-19,53,-5
945,272,-2032,-344,-19,54,-4
950,240,-2000,-344,-17,55,-6
955,240,-2024,-352,-17,56,-5
960,240,-2000,-344,-15,57,-7
965,264,-2016,-336,-14,58,-5
970,272,-2024,-328,-12,59,-6
975,256,-2016,-344,-10,63,-4
980,248,-1992,-328,-9,63,-6
985,248,-2016,-352,-7,64,-3
990,232,-2000,-360,-6,65,-4
995,224,-2008,-352,-4,65,-2
1000,232,-2024,-328,-5,65,-4
1005,232,-2008,-360,-4,65,-3
1010,240,-2016,-376,-6,64,-6
1015,240,-2016,-360,-4,63,-5
1020,240,-2000,-368,-6,61,-6
1025,248,-2016,-392,-5,60,-6
1030,232,-1992,-360,-7,59,-8
1035,240,-2016,-352,-10,59,-8
1040,248,-2016,-360,-15,57,-11
1045,240,-2016,-376,-18,56,-10
1050,256,-2024,-328,-20,56,-14
1055,232,-2008,-352,-21,56,-11
1060,248,-2008,-368,-22,57,-14
1065,248,-2032,-368,-23,57,-11
1070,272,-2040,-352,-24,59,-14
1075,264,-2056,-336,-23,62,-11
1080,240,-2032,-328,-18,64,-12
1085,248,-2032,-328,-14,66,-8
1090,256,-2040,-352,-10,66,-9
1095,248,-2032,-344,-6,68,-5
1100,240,-2024,-320,-5,69,-5
1105,232,-2040,-312,-5,70,-2
1110,264,-2040,-336,-6,73,-2
1115,256,-2048,-360,-5,74,1
1120,272,-2024,-344,-5,76,1
1125,264,-2024,-320,-5,77,4
1130,256,-2032,-352,-3,77,3
1135,232,-2024,-368,-1,78,5
1140,256,-2016,-352,1,77,4
1145,264,-1992,-360,2,75,5
1150,240,-2008,-368,3,73,2
1155,264,-2008,-376,5,74,4
1160,256,-2024,-360,6,73,1
1165,216,-2000,-360,8,73,3
1170,264,-2008,-360,7,72,1
1175,232,-2016,-352,6,74,2
1180,240,-2016,-360,6,74,1
1185,256,-2000,-352,5,74,3
1190,240,-2032,-360,2,75,3
1195,248,-2024,-344,0,76,4
1200,208,-1984,-336,-2,78,3
1205,248,-2000,-352,-3,77,6
1210,240,-2024,-376,-4,76,5
1215,240,-2008,-368,-2,76,6
1220,256,-2008,-352,-2,75,5
1225,264,-2024,-344,-2,74,5
1230,240,-2000,-352,0,70,4
1235,240,-2016,-320,4,69,6
1240,240,-2024,-376,5,66,4
1245,232,-2008,-368,4,64,5
1250,248,-2032,-344,3,62,2
1255,232,-2008,-368,4,60,2
1260,232,-1992,-360,4,59,0
1265,256,-2000,-344,1,60,-2
1270,240,-2000,-352,-3,58,-3
1275,256,-2032,-328,-7,58,-3
1280,248,-2024,-368,-10,59,-4
1285,248,-2024,-352,-11,60,-5
1290,232,-2040,-336,-15,60,-5
1295,240,-2032,-336,-12,60,-4
1300,248,-2048,-360,-10,59,-5
1305,256,-2032,-344,-8,57,-4
1310,224,-2016,-352,-7,56,-5
1315,232,-2032,-352,-8,55,-5
1320,232,-2016,-352,-5,56,-5
1325,240,-2032,-384,-3,54,-5
1330,232,-2016,-336,-4,54,-4
1335,256,-2008,-336,-4,52,-3
1340,224,-2000,-336,-2,54,-3
1345,240,-2008,-336,-3,52,-2
1350,240,-1992,-360,-4,53,-3
1355,232,-2008,-360,-5,53,-3
1360,240,-2024,-352,-6,53,-3
1365,232,-2024,-312,-8,52,-4
1370,240,-2016,-360,-10,52,-3
1375,232,-2016,-360,-9,53,-4
1380,240,-2016,-352,-11,52,-3
1385,240,-2016,-328,-10,54,-5
1390,232,-2024,-304,-11,52,-4
1395,264,-2024,-344,-12,51,-4
1400,256,-2016,-320,-14,51,-5
1405,248,-2016,-360,-14,52,-5
1410,256,-2032,-336,-12,53,-5
1415,248,-2032,-328,-11,52,-6
1420,232,-2024,-360,-9,51,-6
1425,240,-2032,-336,-8,51,-6
1430,240,-2032,-328,-7,52,-6
1435,232,-2008,-352,-7,52,-8
1440,232,-2024,-320,-6,51,-7
1445,256,-2024,-328,-6,51,-8
1450,264,-2040,-344,-5,51,-7
1455,224,-2032,-376,-5,53,-8
1460,264,-2008,-336,-7,53,-6
1465,256,-2024,-352,-8,56,-8
1470,240,-2008,-296,-8,57,-6
1475,232,-2024,-344,-9,59,-7
1480,248,-2024,-392,-8,58,-5
1485,248,-1992,-344,-8,59,-4
1490,240,-2000,-360,-9,60,-4
1495,272,-2040,-360,-7,60,-5
1500,264,-2000,-360,-5,61,-1
1505,240,-2016,-336,-5,62,-3
1510,264,-2032,-328,-3,61,-2
1515,224,-2024,-344,-2,60,-2
1520,264,-2016,-352,-2,60,-2
1525,232,-2024,-296,-1,60,-3
1530,240,-2016,-352,0,58,-3
1535,248,-2008,-344,2,59,-5
1540,272,-2024,-344,4,57,-4
1545,248,-2032,-312,4,57,-6
1550,224,-2008,-352,2,57,-7
1555,224,-2008,-336,-2,56,-11
1560,240,-2024,-344,-3,54,-12
1565,248,-2008,-336,-7,54,-14
1570,248,-2040,-320,-9,54,-14
1575,256,-2032,-328,-12,55,-18
1580,240,-2032,-320,-16,55,-17
1585,240,-2024,-328,-16,58,-19
1590,240,-2064,-320,-16,60,-18
1595,272,-2032,-320,-13,62,-18
1600,272,-2032,-328,-10,63,-15
1605,256,-2024,-328,-8,63,-16
1610,264,-2016,-320,-1,64,-13
1615,264,-2016,-352,0,64,-13
1620,264,-2024,-312,-1,64,-10
1625,264,-2000,-328,-1,64,-12
1630,264,-2032,-304,-2,65,-9
1635,264,-2024,-352,-1,67,-11
1640,240,-1984,-328,-1,68,-7
1645,248,-2024,-336,1,68,-10
1650,256,-2000,-328,-1,70,-7
1655,232,-2016,-344,-3,70,-10
1660,248,-2000,-320,-4,71,-8
1665,256,-2024,-352,-5,68,-12
1670,248,-2016,-368,-5,68,-10
1675,256,-2008,-336,-5,66,-12
1680,248,-2008,-360,-4,65,-11
1685,240,-2016,-344,-3,65,-13
1690,232,-2000,-328,-5,66,-10
1695,232,-2000,-336,-6,67,-11
1700,240,-1984,-352,-7,68,-9
1705,248,-1992,-368,-8,68,-9
1710,248,-1992,-360,-10,69,-5
1715,240,-2008,-328,-14,69,-6
1720,272,-2016,-312,-13,69,-3
1725,232,-2000,-296,-12,68,-6
1730,256,-2016,-304,-13,69,-3
1735,264,-2032,-312,-11,67,-5
1740,256,-2032,-344,-10,66,-2
1745,224,-2016,-320,-8,63,-5
1750,256,-2024,-312,-9,62,-4
1755,232,-2000,-344,-10,60,-7
1760,248,-2016,-312,-9,60,-5
1765,240,-2000,-328,-8,61,-9
1770,256,-2024,-312,-9,62,-7
1775,240,-2024,-328,-12,61,-10
1780,248,-2016,-304,-15,61,-6
1785,264,-2032,-328,-16,64,-9
1790,272,-2024,-320,-19,63,-6
1795,256,-2048,-328,-19,64,-9
1800,272,-2040,-352,-16,64,-6
1805,240,-2032,-360,-12,63,-10
1810,232,-2040,-352,-7,62,-7
1815,240,-2024,-320,-5,60,-9
1820,336,-2040,-344,-2,58,-6
1825,256,-2040,-376,0,57,-7
1830,272,-1960,-360,6,56,-6
1835,256,-1936,-248,9,54,-8
1840,232,-1984,-352,9,55,-6
1845,144,-2072,-344,8,54,-8
1850,320,-2056,-208,7,53,-7
1855,232,-2024,-336,3,52,-8
1860,128,-2088,-336,-2,54,-6
1865,240,-2016,-320,-5,54,-9
1870,256,-1888,-344,-11,55,-8
1875,264,-2016,-328,-14,55,-12
1880,256,-2024,-312,-18,54,-12
1885,240,-2032,-344,-19,52,-15
1890,248,-2008,-320,-20,54,-14
1895,264,-1992,-440,-21,53,-15
1900,288,-2040,-352,-20,52,-15
1905,272,-2032,-336,-18,52,-16
1910,240,-2024,-312,-17,53,-14
1915,264,-2048,-320,-14,54,-15
1920,240,-2040,-336,-11,54,-12
1925,256,-2024,-344,-8,57,-12
1930,264,-2032,-312,-7,58,-11
1935,240,-2016,-320,-7,59,-12
1940,248,-2008,-328,-6,60,-11
1945,256,-2040,-352,-6,62,-13
1950,256,-2008,-336,-8,63,-10
1955,280,-2016,-360,-8,64,-12
1960,240,-1992,-336,-8,63,-10
1965,256,-2016,-360,-11,64,-12
1970,248,-2016,-336,-12,66,-10
1975,272,-2008,-304,-14,65,-11
1980,232,-2008,-328,-13,65,-10
1985,264,-2008,-336,-13,67,-12
1990,248,-2016,-312,-13,68,-10
1995,240,-2008,-336,-12,67,-11
2000,256,-1992,-344,-11,67,-9
2005,272,-2024,-336,-11,65,-11
2010,240,-1992,-336,-10,66,-9
2015,264,-2016,-328,-10,65,-12
2020,272,-2016,-304,-15,65,-12
2025,264,-2008,-328,-16,64,-13
2030,272,-2032,-328,-20,64,-15
2035,240,-2016,-320,-20,63,-16
2040,248,-2016,-304,-23,63,-16
2045,256,-2024,-328,-23,64,-19
2050,264,-2024,-328,-24,63,-18
2055,272,-2016,-336,-28,62,-19
2060,256,-2024,-312,-31,62,-18
2065,264,-2024,-352,-32,61,-20
2070,264,-2008,-360,-30,61,-21
2075,256,-2024,-344,-30,61,-21
2080,264,-2008,-336,-27,61,-22
2085,280,-2008,-352,-28,62,-21
2090,264,-2032,-352,-24,62,-18
2095,280,-2024,-368,-22,61,-17
2100,272,-2016,-360,-19,61,-16
2105,264,-2016,-336,-12,61,-15
2110,256,-2008,-320,-9,61,-13
2115,272,-2040,-312,-10,60,-11
2120,264,-1992,-344,-14,61,-11
2125,256,-1984,-336,-21,61,-11
2130,272,-2032,-368,-27,63,-11
2135,248,-2016,-312,-34,63,-12
2140,248,-2024,-336,-39,65,-13
2145,272,-2048,-336,-40,67,-12
2150,280,-2040,-328,-40,69,-11
2155,248,-2032,-352,-40,71,-12
2160,256,-2032,-312,-38,71,-11
2165,264,-2040,-360,-35,73,-8
2170,248,-2032,-360,-31,73,-10
2175,240,-2032,-336,-27,72,-7
2180,272,-2024,-368,-23,72,-5
2185,248,-2024,-360,-18,71,-5
2190,240,-2024,-328,-15,73,-3
2195,264,-1992,-352,-12,71,-3
2200,248,-2000,-336,-12,70,-1
2205,248,-1992,-352,-12,69,2
2210,272,-2000,-344,-14,68,2
2215,256,-1992,-360,-15,67,2
2220,256,-2008,-344,-15,67,3
2225,256,-2008,-328,-16,66,5
2230,256,-2016,-352,-16,63,3
2235,272,-1976,-352,-15,62,5
2240,256,-2000,-344,-16,60,2
2245,240,-2000,-328,-18,58,2
2250,256,-2000,-368,-19,57,1
2255,208,-2000,-344,-20,55,1
2260,280,-2008,-368,-19,53,-3
2265,264,-2008,-336,-18,49,-5
2270,248,-2000,-312,-17,48,-7
2275,256,-2008,-336,-17,47,-6
2280,272,-2016,-344,-17,47,-8
2285,256,-2016,-336,-16,47,-8
2290,256,-2040,-344,-16,48,-10
2295,264,-2024,-352,-15,48,-10
2300,256,-2024,-376,-12,48,-13
2305,248,-2016,-336,-9,49,-11
2310,264,-2016,-360,-3,49,-15
2315,272,-2024,-376,2,49,-12
2320,256,-2016,-368,4,49,-15
2325,256,-2024,-384,3,49,-14
2330,256,-2032,-336,4,47,-14
2335,264,-2016,-352,5,48,-12
2340,256,-2016,-336,7,47,-14
2345,264,-2024,-344,8,48,-12
2350,256,-2016,-352,10,51,-14
2355,264,-2016,-352,12,51,-13
2360,288,-2032,-360,12,53,-15
2365,264,-2008,-344,13,55,-14
2370,256,-2008,-352,12,54,-14
2375,256,-2008,-344,12,55,-13
2380,288,-2016,-344,11,54,-13
2385,272,-2024,-320,10,56,-11
2390,280,-2024,-352,10,57,-13
2395,264,-2024,-344,9,59,-9
2400,280,-2024,-352,8,60,-12
2405,264,-2024,-352,5,60,-10
2410,248,-2024,-312,5,60,-12
2415,280,-2032,-304,5,61,-8
2420,288,-2024,-336,4,62,-9
2425,264,-2016,-312,4,62,-6
2430,264,-2016,-320,3,63,-7
2435,256,-2016,-336,3,62,-4
2440,264,-2016,-320,2,62,-6
2445,264,-1992,-328,0,63,0
2450,288,-2016,-360,-3,64,-3
2455,288,-2024,-296,-4,65,0
2460,280,-2008,-304,-6,67,-1
2465,280,-1992,-336,-7,69,2
2470,288,-1992,-352,-10,70,2
2475,288,-2000,-304,-12,73,2
2480,296,-2000,-344,-12,75,1
2485,280,-2024,-320,-14,77,3
2490,288,-2000,-320,-15,77,0
2495,288,-2016,-328,-14,79,1
2500,264,-2040,-336,-14,80,0
2505,264,-2024,-328,-14,79,3
2510,264,-1992,-328,-13,80,0
2515,264,-2008,-336,-12,78,0
2520,256,-2000,-344,-13,77,-4
2525,248,-2008,-352,-13,74,-3
2530,264,-2032,-352,-13,72,-5
2535,264,-2016,-336,-14,70,-4
2540,256,-2016,-352,-15,69,-7
2545,272,-2024,-336,-15,68,-6
2550,272,-2032,-352,-16,68,-8
2555,264,-2008,-328,-20,68,-6
2560,256,-2032,-336,-22,68,-9
2565,248,-2024,-312,-19,70,-5
2570,280,-2024,-320,-18,71,-6
2575,248,-2000,-328,-17,72,-4
2580,288,-2024,-352,-16,72,-6
2585,280,-2032,-304,-16,73,-3
2590,272,-2008,-336,-13,72,-4
2595,280,-2024,-336,-10,73,-1
2600,272,-1992,-320,-8,72,-4
2605,264,-1984,-352,-7,69,-1
2610,248,-1984,-328,-10,67,-5
2615,256,-1976,-328,-14,65,-3
2620,232,-2000,-336,-19,65,-5
2625,272,-2024,-344,-23,65,-3
2630,264,-2032,-320,-26,65,-5
2635,256,-2008,-336,-27,66,-2
2640,272,-2032,-312,-25,67,-6
2645,256,-2040,-320,-22,70,-2
2650,240,-2016,-344,-19,72,-4
2655,264,-2016,-352,-16,73,-1
2660,256,-2048,-336,-15,73,-2
2665,256,-2032,-352,-13,72,1
2670,240,-2000,-320,-12,72,1
2675,264,-2024,-304,-11,72,3
2680,256,-2000,-344,-10,73,3
2685,280,-2032,-344,-10,71,8
2690,256,-2008,-304,-12,70,6
2695,264,-1992,-352,-12,69,10
2700,256,-2000,-344,-12,68,8
2705,272,-2008,-352,-14,69,11
2710,272,-2000,-320,-14,71,9
2715,272,-2016,-352,-13,71,11
2720,272,-2000,-336,-13,70,10
2725,256,-2000,-312,-13,68,10
2730,272,-2000,-328,-10,65,7
2735,256,-1992,-312,-8,64,8
2740,264,-1992,-336,-7,61,5
2745,248,-2024,-352,-7,58,6
2750,256,-2008,-352,-8,56,0
2755,248,-2000,-336,-11,54,0
2760,272,-2016,-336,-9,53,-3
2765,256,-2000,-360,-8,54,-3
2770,272,-2048,-352,-9,53,-6
2775,264,-2016,-344,-11,52,-6
2780,264,-2032,-336,-13,53,-7
2785,264,-2024,-312,-15,54,-5
2790,264,-2032,-352,-14,55,-6
2795,272,-2016,-304,-14,56,-5
2800,264,-2024,-344,-12,54,-7
2805,272,-2024,-312,-8,52,-5
2810,256,-2024,-328,-3,52,-7
2815,256,-2008,-320,-2,52,-5
2820,264,-2000,-320,-4,50,-6
2825,280,-2016,-328,-7,51,-4
2830,256,-2008,-344,-10,48,-4
2835,272,-2016,-328,-11,48,-4
2840,272,-2000,-320,-12,48,-4
2845,272,-2016,-344,-12,48,-3
2850,280,-2016,-320,-13,48,-5
2855,288,-2008,-328,-14,49,-3
2860,248,-1976,-304,-15,50,-5
2865,264,-2016,-320,-16,49,-3
2870,264,-2000,-344,-18,50,-4
2875,256,-2024,-328,-18,52,-5
2880,248,-2008,-336,-19,52,-5
2885,280,-2024,-336,-18,52,-4
2890,280,-2008,-328,-19,54,-5
2895,264,-2024,-328,-21,57,-4
2900,248,-2024,-336,-20,58,-4
2905,264,-2032,-344,-20,58,-3
2910,288,-2040,-336,-21,59,-2
2915,264,-2016,-312,-21,62,-1
2920,248,-2032,-344,-19,61,-1
2925,256,-2032,-328,-18,61,-1
2930,240,-2024,-344,-20,61,-1
2935,280,-2024,-328,-19,60,-1
2940,272,-2024,-296,-19,61,-2
2945,248,-2024,-336,-19,61,-1
2950,248,-2032,-352,-18,59,-1
2955,248,-2024,-328,-17,59,-1
2960,272,-2016,-312,-18,59,0
2965,280,-2024,-328,-17,61,0
2970,264,-2024,-344,-17,60,2
2975,264,-2016,-336,-16,61,1
2980,240,-2008,-320,-15,63,1
2985,264,-2016,-328,-14,63,0
2990,248,-2008,-360,-13,65,2
2995,248,-2000,-336,-10,65,3
3000,256,-2016,-304,-8,65,4
3005,288,-2024,-320,-9,65,4
3010,264,-2024,-336,-8,65,5
3015,280,-2032,-328,-10,66,2
3020,240,-1992,-336,-10,65,2
3025,248,-2000,-312,-11,64,0
3030,232,-2008,-336,-10,64,2
3035,272,-2008,-368,-9,63,0
3040,280,-2000,-352,-8,64,0
3045,256,-2024,-368,-11,62,-5
3050,272,-2024,-328,-16,61,-5
3055,272,-2024,-328,-19,61,-7
3060,280,-2016,-336,-17,62,-4
3065,272,-2032,-336,-14,62,-8
3070,256,-2008,-336,-13,62,-6
3075,256,-2048,-352,-12,65,-7
3080,288,-2032,-344,-10,66,-6
3085,272,-2032,-352,-5,68,-6
3090,248,-2008,-312,-1,68,-4
3095,272,-2056,-328,4,68,-3
3100,256,-2016,-344,6,68,-2
3105,272,-2008,-368,1,67,-4
3110,256,-2016,-336,-1,68,-1
3115,272,-2016,-352,-5,68,-4
3120,264,-2008,-328,-8,67,-2
3125,264,-2040,-344,-9,67,-4
3130,288,-2056,-344,-9,67,-2
3135,232,-2016,-328,-8,68,-5
3140,256,-2040,-352,-7,70,-3
3145,240,-2016,-360,-4,69,-5
3150,264,-2032,-352,-1,67,-2
3155,224,-2016,-336,1,68,-5
3160,280,-2032,-312,3,67,-2
3165,264,-2008,-360,3,66,-4
3170,248,-2024,-360,3,64,-1
3175,240,-2000,-376,5,66,-3
3180,264,-2024,-352,6,66,-1
3185,256,-1984,-360,7,70,-2
3190,280,-1992,-352,6,70,0
3195,272,-2000,-360,5,70,0
3200,272,-2000,-336,3,74,4
3205,280,-2016,-336,2,74,4
3210,264,-1992,-336,0,74,6
3215,272,-2008,-344,-1,73,4
3220,264,-2008,-344,-1,73,6
3225,288,-1984,-320,-1,71,5
3230,288,-2024,-304,-2,70,8
3235,256,-1992,-320,-2,66,6
3240,256,-2000,-328,-3,62,8
3245,256,-2000,-336,-5,58,4
3250,248,-2000,-328,-8,55,4
3255,256,-2000,-312,-10,53,2
3260,272,-2008,-328,-9,49,3
3265,280,-2008,-328,-11,48,0
3270,272,-2040,-344,-13,48,2
3275,272,-2000,-328,-16,46,-2
3280,272,-2016,-320,-20,48,1
3285,264,-2032,-312,-22,47,-1
3290,256,-2024,-312,-24,48,1
3295,272,-2032,-336,-23,48,0
3300,256,-2024,-320,-18,49,2
3305,272,-2024,-320,-15,46,-1
3310,256,-2016,-320,-13,46,2
3315,248,-2016,-328,-10,44,-2
3320,248,-2008,-328,-10,43,0
3325,272,-2032,-344,-11,42,-4
3330,264,-2016,-336,-10,40,-2
3335,264,-2016,-344,-11,39,-3
3340,248,-2016,-344,-11,40,-1
3345,280,-2032,-296,-10,41,-2
3350,280,-2024,-304,-11,42,1
3355,272,-2040,-336,-12,45,-2
3360,272,-2016,-288,-12,47,1
3365,248,-2024,-336,-11,49,-1
3370,296,-2000,-344,-10,50,2
3375,280,-2024,-328,-11,54,0
3380,264,-2040,-328,-9,57,2
3385,256,-2024,-328,-5,60,1
3390,272,-2016,-336,-3,61,3
3395,256,-2040,-320,-2,63,2
3400,256,-2016,-320,0,65,4
3405,272,-2016,-312,2,65,2
3410,272,-2032,-336,4,63,6
3415,256,-2024,-336,7,62,3
3420,256,-1992,-344,9,64,6
3425,256,-2016,-384,9,62,4
3430,248,-2024,-336,9,62,6
3435,256,-2016,-344,8,60,5
3440,224,-2008,-320,8,59,7
3445,256,-2008,-344,6,59,4
3450,248,-2008,-312,5,57,6
3455,264,-2016,-336,4,57,4
3460,272,-2024,-344,3,55,7
3465,256,-2000,-344,1,56,5
3470,240,-2016,-336,2,57,7
3475,272,-2008,-352,3,57,6
3480,240,-1984,-320,3,58,8
3485,240,-1984,-352,4,58,7
3490,248,-2008,-336,4,59,10
3495,272,-2000,-320,4,59,9
3500,264,-2032,-312,6,58,11
3505,248,-2032,-312,4,60,9
3510,280,-2024,-304,4,60,10
3515,248,-2008,-336,2,60,8
3520,248,-2024,-320,1,60,9
3525,264,-2016,-328,3,61,8
3530,264,-2016,-328,4,59,7
3535,240,-2024,-336,2,59,5
3540,264,-2008,-312,-4,59,4
3545,256,-2024,-336,-7,59,2
3550,272,-2040,-312,-11,57,3
3555,256,-1992,-320,-13,56,1
3560,256,-2024,-320,-15,57,1
3565,264,-2024,-296,-18,57,-2
3570,296,-2024,-312,-22,57,-2
3575,256,-2040,-328,-21,59,-3
3580,264,-2032,-360,-19,61,-4
3585,248,-2040,-320,-15,62,-3
3590,272,-2008,-336,-11,62,-2
3595,264,-2024,-352,-8,63,-1
3600,256,-2016,-280,-5,64,1
3605,240,-2016,-320,-5,64,0
3610,256,-2016,-296,-5,65,3
3615,248,-2040,-296,-5,67,4
3620,288,-2040,-312,-3,69,5
3625,264,-2024,-344,-1,72,5
3630,272,-2024,-320,-2,72,6
3635,248,-2032,-320,0,74,7
3640,272,-2040,-296,2,74,7
3645,256,-2016,-336,3,72,5
3650,264,-2024,-336,2,72,3
3655,264,-2024,-312,2,71,2
3660,248,-2024,-328,3,69,1
3665,248,-2024,-360,4,68,1
3670,256,-2016,-344,3,66,-1
3675,248,-2016,-320,1,64,-1
3680,240,-2016,-312,1,63,-3
3685,248,-2016,-320,1,62,-2
3690,248,-2024,-328,-1,63,1
3695,232,-2016,-296,-1,61,1
3700,232,-1992,-312,-2,60,3
3705,240,-2000,-312,-1,58,4
3710,256,-2000,-296,-2,58,3
3715,264,-2016,-304,0,57,6
3720,248,-2024,-304,1,57,4
3725,232,-1976,-304,0,55,5
3730,240,-2008,-304,0,53,6
3735,248,-2008,-304,-1,52,6
3740,232,-2024,-296,-2,51,5
3745,256,-2016,-320,-1,51,6
3750,280,-2048,-352,-1,49,3
3755,248,-2024,-336,2,47,4
3760,272,-2008,-312,2,49,2
3765,280,-2008,-280,0,50,4
3770,264,-2016,-296,-2,50,2
3775,256,-2032,-296,-4,52,3
3780,280,-2040,-272,-3,54,4
3785,264,-2048,-320,-2,55,4
3790,256,-2024,-288,-1,55,4
3795,264,-2024,-296,0,56,4
3800,264,-2016,-320,0,57,2
3805,264,-2032,-296,0,58,6
3810,264,-2016,-296,0,59,3
3815,272,-1992,-344,-1,60,3
3820,256,-2016,-304,-3,59,1
3825,280,-2024,-304,-3,57,3
3830,256,-2032,-312,-5,57,1
3835,248,-2008,-352,-5,59,3
3840,280,-2000,-296,-7,58,2
3845,264,-2016,-336,-7,58,4
3850,264,-2008,-328,-8,59,1
3855,296,-2016,-320,-9,59,3
3860,248,-2008,-352,-9,60,0
3865,256,-2032,-344,-10,62,2
3870,256,-2008,-320,-10,62,-1
3875,264,-2008,-328,-9,61,1
3880,264,-2000,-296,-11,61,0
3885,280,-2016,-320,-12,62,1
3890,232,-1984,-304,-12,64,-1
3895,264,-2024,-304,-10,64,3
3900,264,-2008,-312,-10,64,1
3905,272,-2016,-336,-9,63,2
3910,256,-2008,-320,-8,63,0
3915,264,-2024,-328,-7,63,2
3920,280,-2016,-312,-7,63,0
3925,264,-2000,-328,-6,63,3
3930,272,-2024,-336,-6,61,0
3935,248,-2032,-320,-7,60,2
3940,256,-2016,-320,-7,59,-1
3945,264,-2016,-304,-9,60,2
3950,232,-2016,-312,-10,59,1
3955,256,-2032,-272,-10,60,2
3960,264,-2040,-288,-10,60,0
3965,256,-2008,-320,-9,60,3
3970,256,-2024,-304,-8,61,1
3975,256,-2024,-344,-7,62,4
3980,248,-2024,-280,-4,63,3
3985,256,-2000,-320,-3,64,8
3990,256,-2000,-312,-1,66,6
3995,240,-2032,-288,-1,66,8
4000,232,-2016,-312,-2,66,8
4005,264,-2032,-304,0,67,12
4010,256,-2032,-320,0,69,9
4015,264,-2040,-304,-1,69,14
4020,256,-2040,-320,0,71,11
4025,248,-2024,-312,-1,71,14
4030,256,-2016,-344,0,73,11
4035,272,-2056,-320,-4,73,12
4040,272,-2032,-296,-8,73,8
4045,264,-2040,-328,-9,73,10
4050,248,-2048,-304,-8,74,6
4055,264,-2032,-296,-12,74,8
4060,240,-2032,-304,-13,74,5
4065,256,-2048,-328,-16,75,6
4070,248,-2040,-328,-15,76,3
4075,264,-2032,-288,-12,76,5
4080,248,-2024,-288,-10,77,2
4085,248,-2016,-296,-5,76,4
4090,264,-2032,-280,-3,74,1
4095,264,-2032,-336,0,72,2
4100,256,-2024,-304,0,68,0
4105,264,-2040,-280,-1,66,2
4110,264,-2008,-328,-3,65,0
4115,264,-2032,-328,-4,65,3
4120,264,-2008,-304,-6,66,0
4125,232,-2016,-304,-8,65,1
4130,264,-1992,-304,-9,66,-1
4135,256,-2016,-312,-10,66,0
4140,256,-2008,-312,-11,66,-2
4145,240,-2008,-320,-12,66,-2
4150,232,-2016,-312,-12,64,-6
4155,248,-2040,-320,-11,62,-4
4160,192,-1992,-280,-10,63,-6
4165,248,-2032,-320,-9,62,-3
4170,224,-2040,-312,-9,62,-4
4175,232,-2024,-320,-6,62,-3
4180,240,-2024,-312,-6,62,-1
4185,224,-2008,-336,-6,62,2
4190,248,-2032,-288,-7,64,2
4195,232,-2016,-328,-8,65,6
4200,272,-2024,-304,-8,65,5
4205,256,-2032,-328,-11,66,9
4210,264,-2000,-312,-13,66,7
4215,272,-2024,-288,-15,66,10
4220,256,-2008,-296,-15,64,9
4225,272,-2008,-328,-17,63,8
4230,264,-2024,-320,-20,61,7
4235,248,-2016,-304,-22,58,8
4240,248,-2040,-312,-24,58,5
4245,256,-2032,-304,-22,56,5
4250,264,-2048,-312,-22,54,3
4255,272,-2024,-288,-21,53,3
4260,256,-2032,-288,-22,52,2
4265,248,-2016,-288,-24,51,2
4270,232,-2048,-336,-25,52,2
4275,232,-2048,-312,-21,52,1
4280,248,-2040,-328,-20,54,1
4285,272,-2032,-296,-17,53,2
4290,232,-2032,-312,-15,55,2
4295,248,-2040,-280,-14,57,2
4300,256,-2016,-336,-13,58,3
4305,248,-2032,-296,-15,57,4
4310,280,-2024,-296,-17,60,6
4315,224,-2000,-320,-17,60,6
4320,248,-2024,-336,-18,60,8
4325,224,-2008,-320,-17,61,8
4330,240,-2024,-312,-16,61,9
4335,248,-2048,-320,-17,61,9
4340,232,-2008,-328,-18,60,8
4345,264,-2024,-296,-19,59,8
4350,240,-2016,-304,-20,59,6
4355,232,-2032,-288,-19,58,5
4360,240,-2016,-288,-19,56,4
4365,216,-2024,-304,-21,54,3
4370,248,-2008,-272,-22,54,3
4375,240,-2000,-320,-22,53,0
4380,248,-2024,-296,-23,54,-1
4385,248,-2016,-312,-25,52,-2
4390,264,-2048,-320,-24,53,-4
4395,248,-2016,-336,-22,52,-4
4400,240,-2024,-280,-21,52,-3
4405,248,-2016,-296,-16,53,-4
4410,248,-2048,-336,-15,53,-4
4415,248,-2032,-328,-13,53,-5
4420,240,-2032,-304,-13,53,-3
4425,232,-2008,-296,-11,53,-3
4430,240,-2024,-328,-11,55,0
4435,240,-2024,-336,-10,56,0
4440,248,-2000,-328,-12,55,1
4445,256,-2024,-320,-13,57,1
4450,248,-2032,-296,-13,59,4
4455,256,-2016,-328,-14,60,4
4460,248,-2016,-328,-13,60,5
4465,248,-2024,-312,-11,59,6
4470,248,-2016,-328,-9,60,8
4475,248,-2000,-312,-7,60,5
4480,256,-1992,-320,-5,62,8
4485,256,-2024,-304,-3,61,7
4490,248,-2008,-312,-4,61,6
4495,256,-2016,-320,-4,60,6
4500,248,-2000,-344,-5,59,6
4505,216,-1992,-312,-9,60,4
4510,216,-2008,-328,-10,59,6
4515,240,-2024,-328,-12,59,3
4520,248,-2040,-328,-12,61,5
4525,232,-2016,-328,-14,60,3
4530,256,-2032,-312,-17,61,4
4535,224,-2032,-320,-22,61,1
4540,240,-2024,-304,-25,64,2
4545,240,-2016,-320,-26,66,1
4550,232,-2024,-336,-25,67,3
4555,240,-2016,-320,-23,67,0
4560,256,-2040,-328,-22,66,2
4565,248,-2048,-304,-18,68,2
4570,240,-2024,-320,-14,69,4
4575,240,-2024,-320,-11,70,4
4580,224,-2000,-320,-4,71,7
4585,232,-2016,-304,0,69,6
4590,240,-2016,-296,0,66,8
4595,240,-2032,-304,-3,65,5
4600,224,-2024,-312,-9,64,5
4605,248,-2024,-296,-16,64,0
4610,240,-2048,-320,-23,65,1
4615,224,-2016,-312,-27,66,-3
4620,232,-2040,-328,-28,66,-4
4625,240,-2024,-296,-29,68,-8
4630,248,-2016,-288,-27,71,-9
4635,224,-2008,-320,-26,72,-13
4640,240,-2032,-304,-26,71,-14
4645,224,-2016,-320,-26,73,-19
4650,240,-1992,-304,-27,72,-19
4655,240,-2024,-280,-26,72,-23
4660,232,-1992,-328,-27,71,-22
4665,232,-2016,-296,-25,70,-25
4670,224,-2000,-336,-23,69,-23
4675,216,-1992,-336,-22,68,-25
4680,248,-2000,-312,-22,66,-23
4685,256,-2000,-328,-19,63,-24
4690,232,-2000,-336,-19,62,-21
4695,224,-1992,-328,-20,60,-22
4700,248,-2024,-296,-19,60,-17
4705,248,-2032,-312,-19,57,-18
4710,264,-2024,-328,-20,57,-14
4715,232,-2032,-320,-21,57,-14
4720,232,-2016,-328,-22,55,-11
4725,232,-2032,-328,-23,54,-13
4730,248,-2032,-312,-24,53,-10
4735,232,-2048,-288,-25,54,-12
4740,248,-2032,-336,-25,52,-9
4745,232,-2032,-320,-20,51,-11
4750,240,-2016,-328,-18,51,-9
4755,240,-2048,-320,-15,51,-9
4760,208,-2024,-216,-15,52,-5
4765,208,-2048,-272,-14,53,-5
4770,200,-2080,-256,-13,55,-2
4775,224,-2040,-344,-11,56,-3
4780,168,-2016,-224,-4,57,0
4785,184,-2072,-256,0,60,-2
4790,264,-2024,-304,3,60,0
4795,224,-2016,-296,5,61,-3
4800,232,-2000,-304,2,63,0
4805,248,-2016,-336,0,63,-5
4810,256,-2008,-296,-1,63,-3
4815,248,-2024,-312,-3,63,-5
4820,256,-2016,-328,-5,65,-3
4825,168,-2024,-264,-6,64,-5
4830,208,-2064,-368,-6,63,-5
4835,264,-2032,-304,-6,63,-8
4840,256,-2032,-312,-6,60,-7
4845,248,-2024,-312,-8,59,-12
4850,256,-2016,-288,-8,56,-10
4855,248,-2024,-320,-8,56,-13
4860,248,-2024,-304,-8,54,-12
4865,240,-2040,-304,-8,52,-16
4870,240,-2016,-296,-8,52,-16
4875,264,-2032,-296,-7,52,-16
4880,232,-2016,-320,-6,51,-14
4885,224,-2008,-312,-6,51,-16
4890,256,-2048,-304,-5,50,-13
4895,232,-2008,-328,-7,52,-14
4900,256,-2008,-312,-6,53,-10
4905,240,-2016,-312,-4,54,-11
4910,232,-2008,-320,-4,55,-8
4915,216,-2008,-320,-4,57,-8
4920,232,-2000,-296,-5,59,-7
4925,248,-2008,-320,-6,59,-6
4930,264,-2032,-304,-7,60,-4
4935,248,-1992,-336,-4,62,-6
4940,248,-2016,-328,-3,62,-5
4945,264,-2008,-312,-3,63,-6
4950,264,-2024,-304,0,62,-4
4955,264,-2016,-304,2,63,-5
4960,248,-2016,-320,4,62,-3
4965,280,-2024,-320,6,61,-4
4970,248,-2000,-328,6,63,-4
4975,248,-2032,-336,9,62,-4
4980,264,-2024,-304,9,63,-3
4985,256,-2024,-312,9,62,-2
4990,256,-2016,-336,9,61,-3
4995,248,-2016,-304,9,60,-4
5000,248,-2008,-312,7,60,-5
5005,232,-2008,-336,6,58,-7
5010,240,-2024,-336,6,58,-8
5015,248,-2032,-304,8,58,-8
5020,240,-2016,-320,9,59,-8
5025,240,-2016,-320,9,61,-9
5030,240,-2040,-304,6,63,-10
5035,248,-2040,-344,4,64,-10
5040,248,-2032,-344,3,66,-10
5045,256,-2032,-336,7,67,-10
5050,264,-2016,-320,8,70,-11
5055,264,-2032,-296,10,71,-9
5060,256,-2040,-304,12,73,-10
5065,248,-2032,-312,12,73,-8
5070,256,-2000,-312,17,74,-7
5075,248,-2024,-304,20,73,-6
5080,248,-2000,-288,22,70,-5
5085,248,-2008,-312,21,68,-5
5090,248,-1984,-304,18,66,-5
5095,240,-2008,-336,15,63,-6
5100,248,-2016,-328,9,63,-7
5105,264,-2048,-296,4,61,-5
5110,272,-2048,-280,3,62,-9
5115,272,-2048,-304,3,63,-8
5120,240,-2048,-304,5,65,-8
5125,256,-2048,-264,7,66,-9
5130,272,-2040,-288,9,68,-8
5135,248,-2032,-296,12,68,-8
5140,248,-2032,-304,14,68,-7
5145,256,-2024,-304,16,67,-6
5150,256,-2016,-320,19,69,-7
5155,256,-2016,-288,22,69,-2
5160,240,-2024,-288,25,68,-3
5165,264,-2016,-328,26,68,-2
5170,256,-1984,-280,27,68,-3
5175,248,-2000,-320,26,69,0
5180,280,-2040,-304,24,70,-1
5185,256,-1976,-312,24,71,0
5190,272,-2000,-312,21,71,-1
5195,288,-2008,-320,18,70,-1
5200,256,-2008,-320,17,70,-2
5205,248,-2000,-296,16,68,-1
5210,256,-2016,-288,16,66,-4
5215,264,-2016,-312,15,64,-3
5220,264,-2032,-328,16,64,-6
5225,248,-2008,-296,16,61,-6
5230,248,-2040,-304,14,59,-9
5235,248,-2016,-280,15,57,-9
5240,256,-2024,-288,15,57,-12
5245,264,-2032,-312,17,56,-11
5250,248,-2016,-304,20,55,-13
5255,240,-2024,-312,17,54,-11
5260,248,-2008,-272,16,54,-12
5265,240,-2024,-304,14,55,-9
5270,256,-2040,-280,12,56,-11
5275,248,-2016,-296,14,56,-7
5280,232,-2024,-288,17,57,-9
5285,248,-2016,-296,23,58,-6
5290,256,-2016,-280,24,59,-8
5295,264,-2000,-280,21,60,-5
5300,264,-2016,-256,19,60,-6
5305,264,-2000,-264,15,61,-5
5310,248,-2000,-312,13,61,-7
5315,280,-2024,-288,13,60,-4
5320,264,-2024,-256,11,61,-6
5325,272,-2016,-264,12,62,-5
5330,272,-2032,-280,12,62,-7
5335,280,-2040,-296,10,64,-6
5340,288,-2032,-280,12,63,-9
5345,256,-2032,-264,10,64,-8
5350,280,-2064,-296,13,65,-10
5355,256,-2048,-296,15,64,-7
5360,272,-2040,-280,15,64,-8
5365,264,-2040,-264,16,63,-6
5370,248,-2032,-272,16,63,-7
5375,248,-2032,-304,16,63,-5
5380,248,-2016,-272,17,61,-8
5385,248,-2016,-272,17,60,-3
5390,240,-2024,-256,17,61,-5
5395,256,-2032,-288,17,60,0
5400,248,-2024,-280,18,61,-3
5405,256,-2000,-296,17,61,-1
5410,272,-2024,-288,16,61,-2
5415,264,-2032,-240,15,60,0
5420,264,-1984,-280,14,61,-2
5425,272,-2024,-272,13,61,1
5430,240,-2024,-256,11,61,-2
5435,256,-2016,-264,10,63,1
5440,256,-2032,-256,8,63,-3
5445,232,-2008,-256,8,63,0
5450,248,-2008,-272,8,65,-2
5455,264,-1992,-264,8,65,-1
5460,256,-2016,-264,9,65,-4
5465,264,-2024,-296,8,67,-1
5470,264,-2024,-296,9,67,-5
5475,256,-2008,-240,10,68,-2
5480,264,-2024,-264,11,68,-3
5485,248,-2016,-272,11,68,-1
5490,288,-2040,-272,9,67,-3
5495,264,-2040,-280,6,67,-2
5500,248,-2024,-256,3,68,-5
5505,248,-2032,-296,1,70,-3
5510,224,-2000,-264,0,71,-4
5515,248,-2016,-280,0,71,-1
5520,256,-2024,-264,0,71,-4
5525,272,-2048,-272,-4,72,-2
5530,240,-2024,-248,-9,73,-4
5535,240,-2016,-272,-10,73,-3
5540,248,-2040,-256,-7,76,-6
5545,256,-2000,-256,-5,75,-4
5550,264,-2040,-264,-3,76,-5
5555,256,-2032,-264,-2,76,-3
5560,240,-2032,-240,1,77,-2
5565,256,-2024,-232,5,78,1
5570,240,-2016,-288,9,77,-1
5575,248,-2016,-288,11,77,1
5580,224,-2008,-256,10,75,0
5585,256,-2024,-264,7,74,2
5590,232,-1984,-264,2,71,-1
5595,272,-2024,-264,-3,71,-1
5600,264,-2024,-248,-8,71,-3
5605,240,-2032,-224,-14,70,-3
5610,272,-2032,-248,-16,69,-4
5615,256,-2040,-248,-16,71,-3
5620,272,-2032,-256,-14,70,-6
5625,248,-2040,-272,-13,70,-5
5630,256,-2040,-272,-9,70,-5
5635,264,-2032,-264,-7,70,-6
5640,256,-2040,-288,-4,68,-7
5645,256,-2032,-248,-2,68,-6
5650,248,-2032,-240,1,70,-6
5655,240,-2024,-240,5,70,-5
5660,224,-2016,-272,5,70,-7
5665,216,-2016,-280,7,71,-4
5670,240,-2040,-288,9,72,-3
5675,272,-2032,-296,8,72,-4
5680,264,-2000,-280,6,72,-3
5685,232,-2008,-272,4,72,-2
5690,264,-2008,-280,3,71,-4
5695,264,-2016,-264,-1,71,-3
5700,264,-2000,-248,-6,68,-4
5705,280,-2000,-272,-7,65,-4
5710,256,-2000,-296,-10,64,-5
5715,272,-2008,-288,-13,62,-7
5720,264,-2008,-272,-16,58,-10
5725,248,-2008,-216,-19,56,-10
5730,296,-2048,-288,-22,54,-11
5735,264,-2040,-256,-23,52,-13
5740,256,-2024,-256,-20,51,-14
5745,280,-2024,-272,-18,51,-14
5750,288,-2024,-256,-18,50,-16
5755,280,-2048,-272,-20,51,-17
5760,272,-2032,-272,-21,52,-15
5765,272,-2064,-256,-22,51,-15
5770,264,-2048,-256,-19,53,-15
5775,280,-2048,-232,-15,55,-15
5780,264,-2048,-272,-11,55,-14
5785,288,-2032,-240,-8,55,-13
5790,264,-2040,-280,-7,56,-12
5795,280,-2040,-296,-7,57,-12
5800,264,-2024,-312,-9,58,-11
5805,256,-2000,-288,-12,57,-8
5810,240,-2032,-240,-13,58,-6
5815,264,-2024,-280,-14,57,-7
5820,264,-2016,-264,-14,56,-5
5825,248,-2008,-296,-16,57,-5
5830,264,-1992,-288,-17,58,-2
5835,264,-2000,-280,-19,57,-1
5840,264,-2040,-256,-21,57,1
5845,280,-2024,-256,-23,58,0
5850,256,-2008,-288,-23,59,2
5855,264,-2000,-304,-24,58,1
5860,256,-2024,-264,-23,58,3
5865,232,-2000,-288,-23,61,2
5870,248,-2000,-248,-23,63,5
5875,256,-2016,-280,-23,64,3
5880,248,-2032,-264,-23,65,5
5885,248,-2008,-256,-22,66,4
5890,264,-2016,-256,-21,69,5
5895,280,-2024,-256,-20,69,4
5900,288,-2024,-272,-19,72,6
5905,240,-2032,-304,-19,73,4
5910,264,-2024,-288,-19,74,5
5915,272,-2048,-272,-18,77,3
5920,272,-2040,-272,-20,78,5
5925,272,-2032,-272,-21,79,3
5930,288,-2048,-256,-20,80,5
5935,280,-2024,-272,-21,82,4
5940,272,-2024,-280,-21,82,4
5945,280,-2032,-272,-20,82,1
5950,280,-2032,-312,-20,82,4
5955,280,-2024,-280,-18,81,1
5960,288,-2048,-296,-16,79,4
5965,264,-2024,-288,-14,79,2
5970,272,-2024,-288,-13,79,2
5975,280,-2032,-280,-11,78,1
5980,264,-2000,-264,-8,80,3
5985,264,-2024,-280,-5,77,1
5990,232,-2000,-272,-6,76,3
5995,256,-2016,-272,-5,75,1
6000,256,-2024,-272,-5,75,4
6005,256,-2024,-264,-7,74,2
6010,240,-2016,-272,-7,73,4
6015,272,-2016,-272,-5,77,3
6020,240,-2008,-264,-5,76,4
6025,248,-2032,-280,-5,78,3
6030,264,-2032,-272,-8,78,5
6035,264,-2032,-272,-11,80,2
6040,280,-2040,-288,-13,83,2
6045,280,-2024,-280,-12,85,0
6050,256,-2024,-280,-12,87,3
6055,272,-2040,-272,-12,91,1
6060,264,-2056,-256,-10,92,4
6065,272,-2072,-248,-7,94,2
6070,288,-2040,-240,-1,96,4
6075,280,-2064,-280,3,98,3
6080,264,-2056,-256,11,96,6
6085,272,-2056,-280,15,95,6
6090,272,-2032,-264,18,95,10
6095,264,-2024,-280,18,92,7
6100,264,-2032,-248,17,92,10
6105,248,-2016,-264,16,91,9
6110,264,-2040,-248,16,88,11
6115,264,-2032,-264,15,89,8
6120,256,-2032,-256,14,90,14
6125,240,-2008,-272,13,90,11
6130,240,-2024,-256,9,90,13
6135,240,-2024,-248,9,88,11
6140,256,-2000,-264,7,89,12
6145,248,-2024,-256,5,87,10
6150,248,-2016,-240,5,88,12
6155,256,-2008,-248,4,88,10
6160,248,-2008,-248,4,90,13
6165,256,-2016,-248,2,91,11
6170,256,-2024,-280,2,92,14
6175,240,-1984,-256,1,95,14
6180,248,-2000,-240,0,98,16
6185,256,-2024,-264,-1,98,16
6190,224,-2024,-280,-2,101,19
6195,256,-2032,-280,-2,101,18
6200,248,-2040,-264,-3,102,21
6205,280,-2016,-256,-2,101,18
6210,248,-2032,-272,-2,100,21
6215,248,-2048,-280,-3,98,17
6220,264,-2024,-288,-2,95,18
6225,248,-2016,-264,-4,95,17
6230,264,-2040,-272,-3,91,16
6235,256,-2040,-296,-4,89,14
6240,272,-2048,-272,-3,88,14
6245,256,-2040,-272,0,84,13
6250,232,-2032,-264,3,84,16
6255,280,-2048,-264,4,82,14
6260,264,-2040,-248,0,81,16
6265,240,-2032,-256,-1,82,16
6270,240,-2056,-232,-1,81,17
6275,232,-2048,-280,2,82,17
6280,232,-2024,-264,4,81,18
6285,240,-2032,-264,5,79,18
6290,224,-2016,-264,6,77,18
6295,216,-2008,-272,4,76,17
6300,248,-2000,-272,3,74,17
6305,232,-2024,-288,1,71,16
6310,240,-2024,-264,1,70,17
6315,240,-2024,-264,-3,70,17
6320,224,-2016,-256,-4,68,17
6325,248,-2016,-256,-5,66,17
6330,224,-2016,-256,-6,66,18
6335,224,-2008,-272,-7,64,15
6340,232,-2032,-272,-8,65,16
6345,224,-2016,-256,-8,64,15
6350,240,-2024,-256,-8,62,15
6355,248,-2040,-272,-6,62,12
6360,224,-2032,-224,-5,59,10
6365,216,-1992,-232,-2,58,11
6370,240,-2016,-232,0,56,12
6375,232,-2032,-240,-1,56,12
6380,232,-2008,-248,2,55,13
6385,240,-2016,-240,2,54,15
6390,256,-2040,-224,3,53,16
6395,240,-2032,-264,4,52,15
6400,224,-2016,-240,5,54,16
6405,240,-2024,-280,4,53,19
6410,256,-2040,-240,5,54,18
6415,216,-2040,-264,3,53,19
6420,248,-2016,-264,3,53,19
6425,248,-2032,-264,3,54,19
6430,248,-2040,-248,0,54,18
6435,248,-2040,-264,-1,53,18
6440,264,-2024,-240,-2,53,19
6445,264,-2016,-248,-4,51,18
6450,256,-2032,-248,-3,50,17
6455,248,-2040,-256,-4,50,18
6460,240,-2048,-264,-2,49,17
6465,248,-2024,-240,-1,48,17
6470,248,-2048,-264,1,48,17
6475,240,-2040,-256,3,47,17
6480,216,-2024,-216,5,47,18
6485,248,-2032,-232,7,46,18
6490,248,-2024,-232,11,46,19
6495,256,-2032,-248,13,47,21
6500,240,-2016,-240,13,45,21
6505,224,-2024,-248,12,47,23
6510,248,-2008,-232,11,49,23
6515,264,-2040,-280,11,50,24
6520,224,-2008,-224,8,53,24
6525,232,-2016,-256,5,55,25
6530,240,-2008,-272,5,57,25
6535,240,-2016,-280,5,59,28
6540,256,-2016,-248,4,61,25
6545,248,-2024,-248,0,63,27
6550,240,-2032,-224,-4,62,23
6555,256,-2040,-232,-8,63,24
6560,264,-2032,-280,-8,62,23
6565,280,-2048,-280,-11,62,23
6570,256,-2032,-240,-13,62,22
6575,264,-2032,-248,-15,63,24
6580,256,-2048,-264,-12,61,23
6585,280,-2040,-232,-9,62,25
6590,248,-2048,-232,-5,62,23
6595,240,-2016,-256,-4,61,26
6600,240,-2032,-264,1,61,26
6605,224,-2024,-264,3,59,29
6610,256,-2048,-280,3,59,29
6615,232,-1976,-256,1,60,33
6620,240,-2016,-240,-3,61,32
6625,248,-2000,-248,-7,62,34
6630,248,-2016,-240,-11,66,33
6635,224,-2008,-224,-12,66,38
6640,232,-2016,-280,-14,69,36
6645,248,-2024,-248,-15,71,40
6650,232,-2032,-216,-16,74,40
6655,216,-2024,-240,-19,74,42
6660,232,-2032,-232,-20,73,40
6665,232,-2024,-248,-19,73,43
6670,224,-2048,-248,-19,74,42
6675,248,-2056,-224,-16,73,44
6680,248,-2024,-224,-14,73,44
6685,232,-2048,-296,-14,74,47
6690,240,-2032,-232,-13,75,47
6695,240,-2024,-208,-12,75,52
6700,224,-2024,-256,-12,76,51
6705,208,-2040,-248,-14,77,55
6710,232,-2016,-240,-14,78,54
6715,240,-2024,-248,-14,78,58
6720,216,-2016,-232,-15,79,56
6725,216,-2016,-272,-17,80,59
6730,224,-2032,-240,-17,78,58
6735,264,-2032,-264,-15,78,60
6740,240,-2016,-224,-20,77,57
6745,224,-2040,-248,-19,75,62
6750,200,-2016,-248,-19,73,58
6755,208,-2032,-256,-20,72,61
6760,232,-2024,-256,-18,71,57
6765,224,-2032,-248,-19,70,60
6770,208,-2016,-240,-20,69,58
6775,208,-2024,-232,-24,69,61
6780,208,-2032,-240,-28,69,60
6785,232,-2024,-232,-29,69,62
6790,216,-2048,-240,-28,68,61
6795,216,-2056,-240,-26,67,63
6800,216,-2048,-224,-25,69,61
6805,192,-2024,-240,-25,69,64
6810,208,-2048,-240,-23,68,62
6815,208,-2024,-224,-24,66,64
6820,232,-2064,-248,-27,64,62
6825,216,-2040,-256,-28,64,64
6830,208,-2048,-232,-32,64,63
6835,232,-2016,-256,-33,65,65
6840,216,-2048,-232,-34,64,63
6845,208,-2040,-224,-35,63,67
6850,208,-2056,-272,-35,61,64
6855,216,-2032,-240,-34,60,68
6860,184,-2048,-256,-34,60,65
6865,184,-2032,-264,-33,60,67
6870,192,-2032,-248,-32,60,67
6875,208,-2048,-248,-30,60,69
6880,208,-2064,-272,-29,59,69
6885,184,-2048,-248,-28,60,73
6890,184,-2016,-264,-27,58,72
6895,192,-2032,-272,-26,58,75
6900,192,-2024,-264,-27,58,76
6905,192,-2016,-256,-27,58,79
6910,176,-2040,-264,-29,57,80
6915,192,-2008,-280,-33,55,83
6920,184,-2024,-264,-36,55,83
6925,176,-2016,-272,-38,54,87
6930,184,-2024,-232,-40,53,85
6935,184,-2024,-232,-42,52,88
6940,168,-2024,-280,-42,55,87
6945,176,-2016,-280,-44,52,90
6950,184,-2032,-280,-47,51,90
6955,168,-2016,-288,-48,52,93
6960,176,-2024,-248,-48,51,93
6965,168,-2032,-256,-48,51,95
6970,160,-2024,-240,-47,51,95
6975,152,-2040,-248,-47,51,95
6980,184,-2040,-272,-47,49,95
6985,168,-2032,-256,-45,49,98
6990,176,-2040,-256,-44,50,98
6995,168,-2024,-280,-42,51,99
7000,152,-2040,-248,-38,50,100
7005,176,-2056,-288,-33,48,102
7010,152,-2016,-280,-32,48,102
7015,144,-2024,-256,-29,46,103
7020,152,-2032,-272,-29,44,103
7025,136,-2040,-232,-30,43,104
7030,128,-2008,-272,-34,42,103
7035,144,-2040,-296,-38,40,104
7040,128,-2032,-232,-43,40,102
7045,128,-2008,-272,-46,39,103
7050,144,-2040,-264,-49,38,103
7055,144,-2032,-256,-50,37,104
7060,128,-2032,-248,-51,35,104
7065,120,-2024,-280,-55,35,105
7070,128,-2048,-256,-57,30,105
7075,112,-2024,-272,-60,28,106
7080,128,-2040,-264,-62,29,107
7085,120,-2040,-256,-62,29,109
7090,112,-2032,-264,-60,29,109
7095,128,-2032,-264,-59,29,111
7100,128,-2040,-248,-57,28,115
7105,104,-2040,-232,-52,25,116
7110,104,-2024,-240,-45,23,119
7115,112,-2016,-248,-42,20,119
7120,112,-2024,-256,-37,15,121
7125,96,-2000,-272,-39,13,122
7130,96,-1992,-248,-43,11,121
7135,96,-2000,-240,-49,7,120
7140,96,-2024,-264,-58,2,118
7145,80,-2024,-232,-66,-2,114
7150,64,-2048,-240,-70,-6,111
7155,80,-2056,-256,-73,-10,107
7160,96,-2072,-232,-71,-14,106
7165,96,-2056,-280,-68,-16,103
7170,104,-2064,-264,-66,-18,101
7175,96,-2064,-280,-65,-20,97
7180,112,-2064,-264,-68,-14,96
7185,120,-2064,-280,-69,-12,96
7190,96,-2056,-328,-65,-9,96
7195,112,-2056,-296,-66,-6,94
7200,88,-2032,-264,-66,-5,96
7205,120,-2024,-272,-64,-4,96
7210,120,-2000,-248,-59,-7,95
7215,120,-2016,-280,-59,-6,94
7220,112,-2032,-280,-61,-4,95
7225,120,-2016,-296,-65,0,93
7230,120,-1984,-296,-70,2,95
7235,120,-2032,-280,-73,6,94
7240,104,-1992,-280,-77,10,97
7245,112,-2032,-280,-80,12,95
7250,112,-2008,-272,-82,13,97
7255,104,-2040,-288,-85,15,95
7260,104,-2032,-304,-88,16,97
7265,112,-2048,-312,-91,20,95
7270,104,-2048,-320,-95,22,97
7275,80,-2024,-296,-97,23,97
7280,72,-2040,-288,-95,23,100
7285,72,-2032,-328,-94,23,101
7290,48,-2040,-288,-97,25,107
7295,64,-2024,-336,-99,26,108
7300,72,-2040,-304,-102,31,114
7305,48,-2016,-296,-104,34,117
7310,32,-2032,-312,-101,37,122
7315,64,-2056,-312,-96,39,125
7320,72,-2016,-312,-93,43,129
7325,56,-2032,-304,-94,47,133
7330,48,-2040,-280,-89,48,140
7335,48,-2024,-280,-87,48,141
7340,40,-2024,-288,-85,49,146
7345,40,-2008,-256,-82,47,145
7350,40,-2048,-280,-79,46,148
7355,64,-2048,-312,-76,45,147
7360,32,-2032,-296,-74,46,150
7365,40,-2048,-304,-73,46,152
7370,56,-2040,-312,-72,47,158
7375,48,-2008,-312,-77,50,159
7380,32,-2048,-304,-79,51,164
7385,24,-2040,-344,-83,49,163
7390,40,-2048,-336,-86,52,168
7395,32,-2040,-368,-89,53,168
7400,16,-2056,-296,-90,55,174
7405,24,-2024,-320,-90,56,175
7410,24,-2024,-312,-90,57,184
7415,8,-2024,-328,-90,54,186
7420,24,-2024,-352,-88,52,195
7425,24,-2040,-336,-89,48,196
7430,32,-2032,-360,-89,45,203
7435,32,-2024,-304,-90,41,205
7440,24,-2024,-320,-92,39,210
7445,0,-2008,-344,-93,38,210
7450,8,-1992,-336,-95,37,214
7455,8,-2016,-336,-97,34,214
7460,24,-1992,-320,-99,35,220
7465,0,-1992,-296,-97,35,220
7470,0,-2008,-336,-96,34,227
7475,0,-2008,-320,-95,34,229
7480,-8,-2008,-296,-94,36,233
7485,-24,-2000,-320,-94,38,237
7490,-24,-2008,-336,-91,39,244
7495,-24,-2008,-328,-90,40,249
7500,-32,-2008,-344,-89,44,259
7505,-40,-2000,-344,-88,46,264
7510,-56,-2008,-344,-85,49,275
7515,-32,-2016,-344,-83,54,280
7520,-48,-2016,-352,-81,55,290
7525,-32,-2016,-352,-82,57,296
7530,-16,-2008,-344,-83,63,306
7535,-24,-2000,-328,-83,65,311
7540,-64,-2016,-352,-83,66,321
7545,-56,-2008,-384,-85,64,324
7550,-48,-2000,-408,-89,66,335
7555,-64,-2008,-408,-96,67,341
7560,-56,-2016,-400,-102,63,347
7565,-56,-1992,-408,-107,58,350
7570,-64,-1992,-392,-111,57,355
7575,-72,-2032,-408,-117,53,355
7580,-64,-2016,-384,-124,48,357
7585,-64,-2016,-392,-125,40,351
7590,-104,-2056,-368,-136,17,319
7595,-80,-2016,-352,-155,-10,274
7600,-72,-1992,-376,-169,-2,291
7605,-24,-2008,-416,-173,10,320
7610,-24,-2008,-416,-175,26,342
7615,-32,-2016,-384,-174,37,360
7620,-56,-2008,-360,-171,40,371
7625,-64,-2016,-392,-172,39,379
7630,-72,-2016,-376,-171,31,387
7635,-88,-2000,-384,-169,24,390
7640,-96,-2000,-408,-167,15,392
7645,-88,-2000,-400,-171,1,387
7650,-88,-1984,-400,-173,-10,390
7655,-96,-2000,-336,-177,-18,394
7660,-96,-1992,-408,-183,-28,398
7665,-96,-1992,-392,-194,-37,398
7670,-96,-2008,-392,-203,-42,403
7675,-112,-2000,-392,-211,-54,407
7680,-112,-2008,-368,-215,-64,411
7685,-96,-2016,-392,-213,-74,416
7690,-120,-1984,-432,-212,-87,424
7695,-112,-1992,-408,-214,-100,431
7700,-144,-1992,-384,-218,-111,439
7705,-128,-1968,-336,-217,-121,447
7710,-120,-1976,-248,-216,-128,458
7715,-32,-1936,-376,-215,-137,466
7720,-176,-1984,-432,-215,-149,468
7725,-184,-1936,-384,-218,-155,476
7730,-168,-1912,-320,-223,-163,487
7735,-120,-2032,-368,-223,-174,492
7740,-208,-1976,-368,-219,-189,501
7745,-176,-1952,-424,-215,-192,515
7750,-168,-1992,-432,-212,-193,534
7755,-200,-1968,-440,-214,-192,553
7760,-192,-1984,-400,-214,-192,574
7765,-248,-1992,-384,-210,-189,597
7770,-208,-2008,-416,-199,-195,616
7775,-208,-1992,-440,-196,-200,626
7780,-216,-2000,-448,-197,-212,639
7785,-232,-2008,-424,-206,-213,648
7790,-240,-1992,-440,-215,-205,663
7795,-256,-2000,-440,-217,-206,674
7800,-264,-2008,-440,-214,-210,682
7805,-264,-2008,-424,-211,-218,685
7810,-272,-1976,-400,-205,-229,687
7815,-280,-2000,-424,-200,-236,690
7820,-264,-1968,-416,-195,-245,691
7825,-280,-1984,-432,-190,-255,691
7830,-304,-2008,-408,-189,-266,686
7835,-304,-1976,-432,-186,-282,685
7840,-296,-1968,-424,-182,-287,683
7845,-296,-1992,-432,-179,-289,685
7850,-336,-1952,-424,-180,-289,685
7855,-304,-1992,-464,-182,-283,686
7860,-336,-1984,-440,-184,-280,686
7865,-344,-1960,-440,-184,-275,688
7870,-360,-1944,-480,-187,-275,687
7875,-352,-1960,-448,-195,-270,694
7880,-352,-1952,-464,-204,-263,698
7885,-384,-1944,-448,-207,-255,706
7890,-352,-1960,-464,-207,-251,708
7895,-336,-1968,-440,-204,-244,718
7900,-392,-1960,-464,-201,-240,725
7905,-368,-1960,-448,-198,-231,734
7910,-392,-1936,-456,-199,-226,742
7915,-408,-1944,-456,-202,-223,750
7920,-400,-1952,-464,-208,-221,754
7925,-408,-1928,-480,-211,-220,756
7930,-408,-1920,-488,-213,-224,754
7935,-416,-1944,-496,-215,-230,755
7940,-440,-1952,-520,-216,-239,751
7945,-440,-1928,-544,-216,-249,751
7950,-456,-1944,-520,-217,-259,746
7955,-488,-1896,-544,-215,-272,742
7960,-520,-1872,-560,-215,-282,735
7965,-512,-1864,-552,-214,-290,734
7970,-512,-1896,-536,-209,-296,731
7975,-512,-1896,-552,-204,-298,734
7980,-504,-1880,-552,-203,-297,738
7985,-496,-1856,-552,-203,-291,748
7990,-488,-1888,-536,-207,-286,756
7995,-472,-1880,-552,-221,-277,771
8000,-488,-1888,-512,-243,-264,785
8005,-488,-1928,-488,-264,-242,806
8010,-512,-1920,-480,-279,-220,821
8015,-496,-1968,-464,-287,-186,844
8020,-512,-1976,-464,-291,-157,862
8025,-536,-1976,-448,-289,-132,882
8030,-536,-1984,-424,-284,-109,896
8035,-576,-1960,-408,-278,-86,914
8040,-560,-1984,-432,-269,-66,922
8045,-592,-1960,-432,-260,-49,940
8050,-600,-1960,-448,-246,-35,952
8055,-632,-1920,-432,-230,-24,968
8060,-640,-1936,-432,-209,-14,980
8065,-656,-1872,-448,-175,6,994
8070,-680,-1864,-480,-151,25,999
8075,-672,-1832,-464,-128,48,1008
8080,-712,-1776,-456,-106,71,1008
8085,-720,-1768,-464,-83,93,1012
8090,-744,-1752,-456,-59,118,1011
8095,-752,-1672,-440,-36,136,1013
8100,-760,-1680,-472,-18,150,1014
8105,-752,-1672,-480,-6,162,1009
8110,-816,-1632,-456,0,170,994
8115,-776,-1648,-488,-4,166,988
8120,-792,-1640,-464,-13,163,980
8125,-752,-1680,-456,-19,164,976
8130,-752,-1688,-464,-26,169,971
8135,-728,-1664,-464,-33,174,977
8140,-688,-1696,-488,-36,182,982
8145,-664,-1712,-472,-35,194,998
8150,-648,-1736,-480,-28,214,1010
8155,-616,-1736,-480,-12,253,1035
8160,-616,-1744,-512,17,303,1057
8165,-600,-1768,-488,42,361,1090
8170,-616,-1792,-496,73,418,1124
8175,-608,-1776,-496,100,471,1159
8180,-632,-1784,-496,119,520,1194
8185,-608,-1800,-520,130,567,1235
8190,-624,-1784,-512,141,612,1268
8195,-640,-1808,-544,156,656,1301
8200,-656,-1824,-536,174,711,1333
8205,-712,-1824,-536,197,751,1366
8210,-744,-1816,-520,218,782,1399
8215,-800,-1824,-520,233,801,1425
8220,-840,-1800,-504,257,823,1443
8225,-904,-1760,-456,284,839,1462
8230,-976,-1720,-472,309,848,1473
8235,-1032,-1672,-408,331,855,1478
8240,-1072,-1616,-408,351,859,1478
8245,-1128,-1568,-400,364,852,1478
8250,-1216,-1480,-336,373,842,1478
8255,-1280,-1432,-336,375,829,1488
8260,-1344,-1368,-328,365,815,1498
8265,-1352,-1368,-264,347,806,1505
8270,-1432,-1288,-336,336,800,1500
8275,-1440,-1192,-304,295,795,1529
8280,-1464,-1144,-288,224,799,1559
8285,-1456,-1112,-288,135,807,1587
8290,-1488,-1128,-272,38,816,1600
8295,-1496,-1112,-248,-78,828,1612
8300,-1480,-1120,-280,-160,842,1622
8305,-1432,-1152,-304,-229,852,1625
8310,-1424,-1144,-312,-286,853,1620
8315,-1400,-1192,-312,-334,847,1620
8320,-1400,-1208,-336,-372,836,1616
8325,-1344,-1256,-336,-401,828,1610
8330,-1344,-1224,-352,-419,821,1595
8335,-1320,-1216,-368,-435,822,1582
8340,-1312,-1208,-368,-453,823,1579
8345,-1280,-1208,-368,-470,826,1578
8350,-1288,-1184,-352,-492,837,1574
8355,-1256,-1192,-448,-518,841,1575
8360,-1296,-1176,-408,-547,852,1579
8365,-1304,-1152,-440,-562,853,1594
8370,-1288,-1096,-504,-577,852,1616
8375,-1304,-1064,-512,-616,865,1649
8380,-1328,-1064,-552,-666,873,1695
8385,-1264,-1024,-592,-729,860,1730
8390,-1264,-1000,-608,-781,850,1766
8395,-1272,-1016,-600,-820,835,1815
8400,-1264,-944,-648,-831,805,1862
8405,-1280,-992,-672,-844,778,1917
8410,-1288,-992,-768,-842,740,1967
8415,-1376,-912,-744,-831,717,2015
8420,-1368,-904,-784,-823,695,2058
8425,-1368,-840,-816,-814,667,2086
8430,-1384,-784,-824,-830,666,2105
8435,-1424,-768,-824,-877,681,2116
8440,-1448,-752,-768,-917,666,2125
8445,-1480,-704,-824,-952,629,2119
8450,-1472,-680,-744,-993,587,2118
8455,-1472,-672,-760,-1047,558,2135
8460,-1480,-688,-712,-1105,536,2161
8465,-1504,-680,-656,-1160,514,2192
8470,-1520,-688,-656,-1203,482,2225
8475,-1536,-680,-624,-1230,441,2267
8480,-1576,-696,-576,-1246,417,2311
8485,-1624,-760,-504,-1259,376,2345
8490,-1608,-776,-512,-1275,312,2380
8495,-1624,-760,-448,-1293,255,2416
8500,-1640,-800,-400,-1312,196,2445
8505,-1632,-872,-424,-1327,132,2454
8510,-1608,-912,-344,-1329,87,2475
8515,-1624,-968,-336,-1310,43,2487
8520,-1640,-952,-280,-1300,-52,2478
8525,-1600,-920,-328,-1298,-124,2476
8530,-1600,-888,-312,-1308,-168,2488
8535,-1528,-928,-224,-1319,-208,2502
8540,-1328,-928,-304,-1315,-257,2480
8545,-1240,-912,-256,-1317,-274,2429
8550,-1160,-816,-312,-1297,-276,2383
8555,-1184,-824,-344,-1278,-288,2363
8560,-1200,-808,-352,-1248,-288,2379
8565,-1176,-848,-416,-1252,-292,2324
8570,-1072,-760,-440,-1306,-289,2221
8575,-1064,-680,-448,-1357,-297,2103
8580,-1016,-592,-520,-1416,-336,1998
8585,-992,-552,-584,-1481,-390,1913
8590,-1232,-608,-680,-1535,-476,1858
8595,-880,-496,-840,-1567,-588,1820
8600,-856,-504,-976,-1582,-712,1809
8605,-752,-504,-1216,-1600,-865,1788
8610,-944,-576,-1256,-1630,-1007,1705
8615,-1064,-624,-1376,-1687,-1235,1596
8620,-1096,-680,-1376,-1703,-1421,1463
8625,-1088,-728,-1464,-1677,-1593,1287
8630,-1192,-808,-1496,-1602,-1718,1077
8635,-1248,-856,-1640,-1470,-1818,828
8640,-1400,-856,-1656,-1326,-1882,524
8645,-1592,-912,-1624,-1178,-1905,180
8650,-1904,-872,-1624,-1024,-1872,-159
8655,-2224,-688,-1688,-840,-1790,-515
8660,-2488,-504,-1768,-583,-1627,-743
8665,-2696,-272,-1856,-323,-1433,-922
8670,-2848,-8,-2064,-21,-1197,-1041
8675,-2920,208,-2136,308,-936,-1075
8680,-2904,384,-2328,656,-674,-1012
8685,-3008,480,-2416,993,-440,-862
8690,-2632,848,-2712,1272,-261,-626
8695,-2408,792,-2792,1421,-131,-323
8700,-2088,912,-2784,1436,-64,84
8705,-1784,984,-2720,1311,-34,381
8710,-1656,1176,-2704,1129,-47,618
8715,-1568,1512,-2520,788,-133,810
8720,-1472,1760,-2144,296,-336,991
8725,-1400,1832,-1864,-219,-649,1177
8730,-1384,1816,-1752,-702,-1039,1362
8735,-1360,1664,-1720,-1144,-1449,1503
8740,-1472,1520,-1624,-1585,-1816,1606
8745,-1560,1280,-1408,-2009,-2144,1661
8750,-1504,896,-1144,-2431,-2552,1641
8755,-1936,656,-1072,-2635,-2939,1515
8760,-1936,552,-1352,-2795,-3311,1412
8765,-2144,392,-1280,-2961,-3553,1366
8770,-2296,192,-1304,-3097,-3793,1350
8775,-2480,72,-1448,-3190,-4035,1277
8780,-2984,48,-1488,-3224,-4153,1161
8785,-3384,40,-1296,-3124,-4173,1040
8790,-4056,392,-1224,-2837,-4128,931
8795,-4656,632,-912,-2459,-4042,857
8800,-5008,832,-656,-2061,-3952,715
8805,-5200,896,8,-1831,-4047,284
8810,-5776,1288,-64,-1400,-3920,-306
8815,-7040,3528,200,-525,-3392,-804
8820,-7336,4800,168,65,-3158,-962
8825,-7176,6000,680,186,-3084,-857
8830,-6752,6328,632,-107,-3162,-628
8835,-5848,6024,512,-742,-3446,-632
8840,-4488,5136,-64,-1489,-3709,-1087
8845,-3776,4312,-600,-2299,-3812,-1481
8850,-2888,3312,-824,-2851,-3900,-1660
8855,-2960,2704,-704,-3104,-3905,-1780
8860,-2632,2320,-552,-3033,-3952,-1720
8865,-1984,1960,-360,-2704,-4087,-1547
8870,-1408,1680,-104,-2274,-4297,-1325
8875,-1104,1400,152,-1883,-4571,-1091
8880,-864,1272,376,-1561,-4967,-866
8885,-544,1088,312,-1364,-5363,-635
8890,-664,1056,528,-1353,-5570,-534
8895,-888,976,776,-1420,-5601,-467
8900,-920,824,1096,-1463,-5504,-391
8905,-1024,536,1448,-1453,-5286,-339
8910,-928,304,1592,-1309,-4997,-306
8915,-808,32,1688,-1069,-4618,-258
8920,-776,8,1712,-810,-4194,-192
8925,-496,-256,1816,-586,-3823,-56
8930,-304,-224,1736,-369,-3523,82
8935,-96,-280,1808,-202,-3171,182
8940,64,-272,1896,-18,-2923,247
8945,224,-200,1904,160,-2734,296
8950,288,-80,1888,357,-2602,320
8955,400,40,1704,553,-2514,323
8960,376,248,1640,727,-2437,310
8965,376,416,1592,872,-2379,288
8970,400,520,1488,994,-2338,254
8975,376,696,1352,1066,-2282,193
8980,336,848,1224,1088,-2192,98
8985,280,1032,1208,1058,-2099,13
8990,224,1160,1192,1003,-1999,-62
8995,248,1312,1176,912,-1882,-122
9000,264,1376,1256,772,-1750,-182
9005,304,1376,1328,617,-1622,-246
9010,264,1392,1448,455,-1488,-302
9015,336,1368,1560,295,-1353,-340
9020,360,1304,1632,149,-1221,-361
9025,368,1224,1736,23,-1095,-363
9030,384,1104,1824,-108,-937,-345
9035,400,1040,1856,-192,-810,-324
9040,368,984,1936,-255,-704,-303
9045,512,776,2072,-280,-632,-285
9050,552,672,2072,-269,-560,-334
9055,496,640,2088,-253,-506,-406
9060,416,584,2120,-245,-470,-472
9065,432,520,2160,-245,-456,-527
9070,352,464,2120,-265,-448,-601
9075,296,432,2136,-322,-433,-658
9080,240,344,2112,-403,-403,-718
9085,152,368,2104,-505,-368,-770
9090,96,312,2136,-611,-326,-801
9095,-32,208,2240,-708,-272,-817
9100,-96,96,2328,-773,-228,-813
9105,-104,8,2344,-821,-198,-800
9110,-120,-48,2424,-841,-172,-784
9115,-128,-104,2464,-840,-149,-764
9120,-200,-216,2520,-840,-123,-717
9125,-160,-312,2496,-811,-115,-659
9130,-192,-360,2472,-752,-107,-595
9135,-192,-376,2424,-652,-92,-522
9140,-176,-408,2392,-526,-65,-454
9145,-176,-408,2336,-396,-24,-391
9150,-168,-424,2320,-268,22,-342
9155,-184,-400,2232,-148,62,-301
9160,-208,-400,2120,-38,100,-273
9165,-224,-368,2072,68,153,-255
9170,-272,-336,1984,185,206,-249
9175,-288,-328,1904,271,262,-246
9180,-344,-280,1864,336,326,-254
9185,-400,-232,1800,383,392,-262
9190,-440,-208,1776,411,463,-270
9195,-496,-136,1768,427,533,-269
9200,-552,-96,1760,433,602,-266
9205,-648,-48,1720,430,668,-256
9210,-744,-16,1736,429,726,-242
9215,-848,-8,1680,423,785,-223
9220,-904,32,1696,419,834,-204
9225,-960,72,1720,412,883,-180
9230,-1008,96,1688,404,936,-158
9235,-1056,136,1656,397,985,-135
9240,-1080,200,1656,390,1027,-116
9245,-1120,200,1672,380,1066,-97
9250,-1152,216,1624,379,1091,-83
9255,-1184,248,1608,379,1112,-66
9260,-1224,248,1576,384,1136,-58
9265,-1240,224,1552,392,1149,-49
9270,-1256,256,1504,399,1154,-48
9275,-1280,272,1488,394,1164,-51
9280,-1304,288,1416,386,1176,-62
9285,-1296,288,1392,371,1188,-70
9290,-1296,288,1360,351,1192,-85
9295,-1312,256,1344,323,1192,-102
9300,-1304,256,1312,291,1199,-129
9305,-1312,304,1280,253,1214,-153
9310,-1304,256,1280,192,1235,-178
9315,-1384,232,1280,150,1248,-194
9320,-1392,192,1264,127,1242,-217
9325,-1400,128,1256,110,1224,-231
9330,-1416,144,1240,110,1198,-248
9335,-1440,120,1256,125,1169,-253
9340,-1432,144,1240,142,1143,-259
9345,-1488,152,1216,155,1120,-260
9350,-1496,160,1248,161,1091,-263
9355,-1488,200,1248,162,1065,-262
9360,-1536,176,1232,160,1045,-272
9365,-1584,200,1248,158,1028,-278
9370,-1608,224,1240,161,1012,-290
9375,-1616,216,1216,172,993,-297
9380,-1616,232,1216,184,973,-299
9385,-1656,248,1192,194,953,-294
9390,-1712,232,1192,202,936,-301
9395,-1720,224,1176,213,919,-308
9400,-1752,280,1200,229,896,-315
9405,-1752,288,1136,240,882,-316
9410,-1752,240,1168,249,867,-318
9415,-1768,264,1176,260,851,-314
9420,-1776,288,1168,270,835,-316
9425,-1832,272,1136,284,818,-313
9430,-1808,280,1112,293,801,-307
9435,-1840,280,1112,296,791,-298
9440,-1832,272,1112,297,784,-291
9445,-1848,280,1104,301,765,-277
9450,-1824,296,1120,306,744,-264
9455,-1824,280,1088,309,722,-243
9460,-1816,296,1088,305,705,-231
9465,-1816,304,1064,296,690,-218
9470,-1808,288,1096,286,676,-207
9475,-1816,320,1072,279,654,-187
9480,-1816,272,1064,269,629,-175
9485,-1808,312,1056,255,605,-161
9490,-1824,272,1048,234,575,-154
9495,-1800,288,1056,214,551,-143
9500,-1760,296,1024,194,527,-137
9505,-1792,280,1024,168,506,-129
9510,-1768,288,1056,142,486,-127
9515,-1768,288,1032,120,457,-118
9520,-1760,312,1032,98,426,-118
9525,-1784,336,992,71,399,-120
9530,-1800,320,968,40,372,-123
9535,-1808,328,992,3,333,-120
9540,-1832,328,1024,-30,299,-123
9545,-1760,384,1048,-59,262,-124
9550,-1856,352,960,-53,204,-133
9555,-1848,312,968,-62,149,-124
9560,-1872,296,976,-89,103,-108
9565,-1872,272,984,-107,59,-105
9570,-1840,328,976,-125,21,-114
9575,-1880,320,984,-138,-14,-107
9580,-1864,320,976,-140,-60,-93
9585,-1864,344,960,-138,-97,-79
9590,-1840,320,984,-139,-129,-71
9595,-1840,320,968,-143,-161,-58
9600,-1880,344,984,-150,-188,-51
9605,-1848,320,1016,-159,-214,-40
9610,-1832,304,984,-171,-235,-27
9615,-1832,304,984,-179,-252,-13
9620,-1792,272,976,-190,-266,-4
9625,-1784,288,992,-203,-284,9
9630,-1784,256,1016,-222,-297,17
9635,-1760,232,1024,-240,-314,27
9640,-1712,232,1072,-257,-329,32
9645,-1736,192,1056,-272,-340,36
9650,-1680,176,1088,-282,-348,38
9655,-1664,152,1112,-294,-353,43
9660,-1640,128,1128,-302,-359,40
9665,-1640,104,1176,-307,-365,42
9670,-1632,112,1168,-310,-372,41
9675,-1616,120,1176,-313,-370,40
9680,-1600,120,1240,-313,-367,40
9685,-1560,104,1280,-310,-363,42
9690,-1560,88,1256,-303,-357,45
9695,-1552,104,1344,-293,-349,45
9700,-1552,96,1304,-281,-344,50
9705,-1536,88,1336,-269,-334,56
9710,-1536,88,1384,-257,-325,62
9715,-1496,104,1400,-242,-313,70
9720,-1480,104,1408,-227,-303,77
9725,-1472,104,1408,-215,-294,86
9730,-1456,96,1424,-203,-288,97
9735,-1416,128,1424,-189,-280,107
9740,-1440,112,1456,-177,-269,118
9745,-1392,120,1384,-169,-258,129
9750,-1400,128,1424,-161,-249,140
9755,-1440,160,1464,-155,-233,148
9760,-1400,192,1424,-149,-209,160
9765,-1392,160,1392,-151,-185,165
9770,-1408,208,1432,-157,-158,171
9775,-1360,168,1448,-155,-134,175
9780,-1384,152,1432,-154,-108,176
9785,-1368,168,1440,-151,-86,175
9790,-1336,160,1440,-147,-64,173
9795,-1336,168,1416,-147,-43,173
9800,-1336,160,1440,-150,-24,175
9805,-1320,144,1416,-152,-11,171
9810,-1296,136,1400,-152,-3,166
9815,-1288,144,1400,-147,-4,155
9820,-1296,144,1400,-146,-6,147
9825,-1272,120,1384,-145,-12,136
9830,-1280,152,1376,-143,-20,121
9835,-1288,176,1376,-138,-28,102
9840,-1264,152,1336,-139,-32,89
9845,-1272,184,1360,-140,-36,74
9850,-1288,176,1368,-143,-39,59
9855,-1272,176,1352,-148,-43,46
9860,-1320,152,1320,-155,-42,35
9865,-1320,184,1352,-159,-40,20
9870,-1320,200,1368,-163,-36,11
9875,-1304,184,1368,-165,-31,1
9880,-1288,176,1360,-164,-27,-6
9885,-1312,160,1376,-162,-23,-14
9890,-1360,160,1376,-158,-17,-18
9895,-1352,168,1376,-151,-12,-23
9900,-1352,192,1408,-143,-5,-23
9905,-1352,192,1400,-138,5,-27
9910,-1376,176,1408,-135,15,-28
9915,-1376,144,1408,-130,22,-32
9920,-1368,160,1408,-121,27,-31
9925,-1392,152,1424,-114,32,-31
9930,-1400,152,1424,-109,38,-29
9935,-1416,144,1432,-102,43,-32
9940,-1424,152,1432,-96,46,-33
9945,-1416,144,1400,-91,50,-36
9950,-1416,128,1432,-85,51,-35
9955,-1416,120,1416,-79,55,-36
9960,-1408,96,1376,-74,58,-36
9965,-1416,120,1392,-69,62,-44
9970,-1400,104,1416,-60,63,-43
9975,-1408,72,1368,-49,67,-45
9980,-1408,72,1392,-36,68,-45
9985,-1416,48,1360,-24,73,-47
9990,-1400,64,1376,-12,81,-46
9995,-1424,80,1352,5,86,-49
10000,-1432,48,1344,16,91,-48
10005,-1424,48,1376,26,97,-50
10010,-1448,48,1344,34,103,-49
10015,-1448,40,1328,41,109,-54
10020,-1464,56,1344,48,114,-52
10025,-1464,64,1320,53,119,-54
10030,-1480,72,1328,57,124,-50
10035,-1472,80,1328,62,130,-50
10040,-1496,80,1336,65,133,-46
10045,-1472,80,1280,67,138,-46
10050,-1488,80,1312,66,141,-42
10055,-1496,88,1296,68,144,-44
10060,-1520,96,1312,68,147,-37
10065,-1504,112,1304,67,149,-38
10070,-1528,120,1296,66,151,-35
10075,-1512,112,1312,64,152,-35
10080,-1480,120,1320,62,153,-31
10085,-1504,104,1320,59,151,-31
10090,-1488,112,1312,58,149,-28
10095,-1488,112,1304,55,145,-30
10100,-1488,120,1272,50,143,-26
10105,-1472,120,1272,48,140,-29
10110,-1480,104,1312,45,138,-25
10115,-1496,128,1320,41,136,-27
10120,-1472,104,1312,38,132,-25
10125,-1488,136,1344,35,132,-26
10130,-1472,128,1312,31,127,-25
10135,-1440,136,1320,27,124,-27
10140,-1488,128,1320,25,125,-24
10145,-1464,120,1312,21,123,-27
10150,-1488,120,1312,17,122,-25
10155,-1480,136,1312,12,120,-27
10160,-1512,144,1312,8,118,-25
10165,-1488,104,1304,6,115,-26
10170,-1496,128,1296,4,112,-23
10175,-1488,128,1280,5,108,-23
10180,-1504,136,1304,7,107,-20
10185,-1504,136,1296,9,106,-19
10190,-1496,152,1280,9,104,-14
10195,-1512,176,1264,7,103,-13
10200,-1520,208,1280,8,103,-9
10205,-1504,216,1304,9,104,-7
10210,-1496,200,1312,7,105,-2
10215,-1520,192,1304,7,104,-3
10220,-1512,208,1280,7,104,1
10225,-1528,208,1304,4,102,-1
10230,-1528,192,1288,2,99,0
10235,-1536,216,1304,-3,96,-3
10240,-1528,208,1280,-7,92,-3
10245,-1504,184,1304,-12,86,-5
10250,-1512,200,1296,-21,82,-3
10255,-1488,160,1304,-26,79,-4
10260,-1504,200,1328,-32,76,-3
10265,-1512,200,1320,-36,76,-1
10270,-1512,200,1312,-40,74,0
10275,-1512,192,1328,-43,73,-1
10280,-1512,184,1344,-45,73,2
10285,-1504,192,1328,-46,71,1
10290,-1504,184,1280,-47,68,4
10295,-1496,176,1288,-46,65,6
10300,-1496,192,1320,-49,62,9
10305,-1488,176,1312,-48,59,8
10310,-1520,184,1272,-50,55,12
10315,-1504,184,1320,-49,50,15
10320,-1512,192,1272,-49,47,17
10325,-1496,160,1280,-54,44,18
10330,-1512,192,1304,-59,42,20
10335,-1512,192,1256,-62,38,18
10340,-1496,176,1288,-61,35,16
10345,-1504,208,1288,-62,35,14
10350,-1480,176,1272,-63,32,13
10355,-1504,152,1304,-63,30,11
10360,-1504,168,1320,-61,28,9
10365,-1480,152,1312,-60,24,7
10370,-1504,168,1320,-61,22,5
10375,-1488,168,1288,-60,17,3
10380,-1488,152,1304,-61,14,1
10385,-1464,160,1304,-61,11,-1
10390,-1488,136,1280,-63,10,-3
10395,-1472,136,1320,-63,8,-5
10400,-1480,136,1344,-63,6,-7
10405,-1448,120,1360,-62,6,-8
10410,-1456,120,1320,-60,6,-9
10415,-1456,112,1304,-57,6,-8
10420,-1448,96,1312,-54,6,-10
10425,-1464,128,1328,-50,9,-10
10430,-1496,128,1336,-47,9,-9
10435,-1440,96,1352,-44,12,-9
10440,-1456,136,1336,-42,13,-8
10445,-1456,104,1336,-41,15,-9
10450,-1448,104,1328,-40,20,-7
10455,-1456,88,1344,-41,23,-5
10460,-1448,112,1336,-38,22,-5
10465,-1464,128,1312,-33,23,-5
10470,-1464,112,1304,-31,27,-6
10475,-1464,104,1312,-30,30,-5
10480,-1432,80,1296,-27,32,-5
10485,-1472,104,1304,-25,35,-3
10490,-1456,96,1336,-24,37,-3
10495,-1456,104,1352,-23,39,-3
10500,-1456,120,1304,-22,41,-4
10505,-1448,112,1328,-21,43,-3
10510,-1432,104,1360,-21,46,-6
10515,-1448,160,1320,-22,46,-5
10520,-1448,104,1328,-24,50,-6
10525,-1472,104,1320,-24,52,-7
10530,-1448,96,1360,-27,52,-6
10535,-1496,128,1344,-27,54,-7
10540,-1456,112,1344,-26,57,-7
10545,-1448,112,1336,-25,58,-5
10550,-1456,88,1320,-23,60,-7
10555,-1448,88,1344,-20,63,-4
10560,-1456,104,1328,-18,66,-6
10565,-1456,96,1352,-16,70,-4
10570,-1456,88,1320,-12,74,-5
10575,-1464,96,1344,-10,76,-2
10580,-1456,112,1320,-8,77,-4
10585,-1480,128,1312,-6,79,-2
10590,-1456,136,1304,-3,79,-3
10595,-1424,112,1336,-2,81,-2
10600,-1456,128,1336,-1,81,-4
10605,-1480,136,1344,-1,82,-2
10610,-1432,112,1328,-2,81,-5
10615,-1448,120,1320,-2,80,-5
10620,-1440,136,1320,-4,79,-7
10625,-1480,112,1280,-5,80,-6
10630,-1360,136,1392,-8,80,-9
10635,-1424,208,1272,-9,79,-9
10640,-1504,144,1192,-9,78,-12
10645,-1520,40,1320,-9,77,-11
10650,-1488,152,1352,-10,78,-15
10655,-1488,128,1464,-9,78,-13
10660,-1496,128,1304,-9,78,-15
10665,-1456,120,1344,-8,78,-13
10670,-1480,136,1320,-9,79,-16
10675,-1472,104,1336,-9,78,-14
10680,-1504,128,1336,-7,77,-18
10685,-1480,128,1336,-5,77,-14
10690,-1480,104,1336,2,79,-17
10695,-1488,128,1320,7,81,-16
10700,-1472,128,1312,11,80,-18
10705,-1488,144,1296,12,80,-17
10710,-1496,120,1320,12,80,-19
10715,-1480,144,1328,13,79,-16
10720,-1480,160,1296,12,79,-17
10725,-1472,160,1344,12,78,-15
10730,-1488,168,1320,10,79,-16
10735,-1488,152,1304,11,78,-11
10740,-1496,144,1312,9,77,-14
10745,-1496,144,1296,8,74,-12
10750,-1472,160,1320,5,74,-14
10755,-1480,144,1328,1,72,-11
10760,-1472,136,1328,-2,71,-14
10765,-1480,144,1320,-4,71,-11
10770,-1488,136,1328,-6,73,-14
10775,-1464,128,1312,-8,74,-11
10780,-1496,144,1328,-9,75,-12
10785,-1464,112,1304,-8,77,-9
10790,-1504,144,1336,-9,79,-10
10795,-1464,112,1304,-7,79,-7
10800,-1496,128,1328,-6,78,-8
10805,-1480,136,1328,-5,78,-5
10810,-1488,144,1320,-5,76,-7
10815,-1504,144,1352,-4,74,-3
10820,-1480,128,1288,-1,72,-5
10825,-1504,128,1288,1,71,-3
10830,-1488,120,1288,1,69,-5
10835,-1488,128,1312,2,68,-1
10840,-1496,120,1312,1,68,-6
10845,-1472,136,1296,-1,68,-3
10850,-1464,120,1296,-2,67,-7
10855,-1512,144,1280,-4,65,-5
10860,-1504,160,1288,-7,63,-8
10865,-1496,152,1320,-9,62,-9
10870,-1488,128,1304,-11,59,-11
10875,-1448,160,1296,-14,57,-9
10880,-1488,152,1304,-18,54,-12
10885,-1472,144,1296,-19,52,-10
10890,-1488,152,1312,-22,49,-14
10895,-1512,152,1296,-22,47,-13
10900,-1488,152,1312,-25,47,-16
10905,-1472,144,1304,-26,44,-13
10910,-1496,144,1320,-27,42,-15
10915,-1488,144,1320,-27,43,-14
10920,-1488,144,1336,-27,42,-14
10925,-1488,136,1320,-26,42,-14
10930,-1480,136,1304,-25,42,-13
10935,-1456,112,1304,-23,43,-12
10940,-1472,120,1312,-20,44,-14
10945,-1480,112,1312,-17,43,-11
10950,-1480,144,1328,-17,43,-12
10955,-1480,120,1296,-16,45,-9
10960,-1464,104,1312,-16,46,-8
10965,-1472,136,1304,-18,45,-8
10970,-1464,128,1288,-18,46,-8
10975,-1464,104,1272,-18,46,-6
10980,-1472,128,1312,-16,44,-6
10985,-1464,144,1328,-13,45,-5
10990,-1464,112,1296,-14,45,-7
10995,-1456,112,1344,-12,44,-5
11000,-1464,136,1344,-11,44,-7
11005,-1472,152,1328,-11,44,-7
11010,-1432,120,1320,-13,45,-8
11015,-1496,152,1328,-12,46,-9
11020,-1456,136,1296,-13,47,-9
11025,-1456,144,1344,-12,50,-9
11030,-1448,112,1328,-13,49,-11
11035,-1480,120,1328,-16,51,-10
11040,-1488,128,1344,-17,52,-12
11045,-1480,128,1344,-18,53,-11
11050,-1472,120,1304,-19,55,-11
11055,-1464,104,1328,-19,56,-11
11060,-1488,136,1352,-19,56,-11
11065,-1464,104,1320,-18,55,-11
11070,-1472,112,1296,-18,55,-11
11075,-1480,112,1344,-16,56,-10
11080,-1488,120,1320,-15,57,-9
11085,-1448,112,1320,-12,56,-9
11090,-1448,120,1344,-11,57,-8
11095,-1480,128,1328,-8,57,-9
11100,-1480,128,1344,-7,58,-9
11105,-1488,136,1320,-5,58,-9
11110,-1488,128,1312,-6,60,-8
11115,-1472,136,1304,-6,60,-10
11120,-1472,152,1328,-7,62,-8
11125,-1480,144,1320,-8,63,-9
11130,-1472,152,1288,-9,61,-9
11135,-1496,136,1328,-12,60,-10
11140,-1464,128,1312,-14,60,-10
11145,-1472,120,1336,-16,58,-12
11150,-1464,128,1296,-18,59,-9
11155,-1480,136,1296,-19,58,-11
11160,-1464,112,1328,-19,58,-9
11165,-1456,112,1312,-20,57,-11
11170,-1480,112,1320,-21,57,-9
11175,-1448,112,1312,-18,57,-10
11180,-1496,120,1336,-16,58,-9
11185,-1464,120,1352,-13,59,-11
11190,-1448,104,1328,-13,59,-8
11195,-1464,144,1320,-13,60,-10
11200,-1480,120,1328,-11,60,-8
11205,-1472,120,1320,-12,60,-9
11210,-1480,136,1328,-11,59,-9
11215,-1488,112,1320,-11,59,-8
11220,-1504,128,1304,-12,59,-8
11225,-1480,128,1288,-9,58,-9
11230,-1472,128,1336,-6,58,-7
11235,-1456,112,1288,1,56,-11
11240,-1488,128,1336,4,54,-9
11245,-1504,120,1296,3,53,-13
11250,-1504,112,1328,2,52,-10
11255,-1512,152,1320,-1,52,-12
11260,-1472,144,1296,-3,53,-10
11265,-1488,160,1312,-5,53,-12
11270,-1488,152,1328,-8,54,-8
11275,-1480,152,1320,-9,54,-9
11280,-1488,152,1320,-12,55,-6
11285,-1488,144,1336,-16,53,-9
11290,-1488,136,1328,-20,54,-7
11295,-1472,128,1336,-22,51,-8
11300,-1488,136,1288,-24,50,-4
11305,-1464,128,1328,-26,51,-6
11310,-1448,120,1336,-26,51,-4
11315,-1464,88,1328,-26,54,-6
11320,-1480,120,1336,-26,54,-4
11325,-1488,120,1336,-25,57,-4
11330,-1456,112,1368,-23,59,-1
11335,-1480,112,1368,-23,61,-4
11340,-1480,104,1344,-23,62,0
11345,-1472,128,1320,-20,61,-1
11350,-1480,104,1336,-21,59,3
11355,-1488,96,1328,-17,60,0
11360,-1496,128,1320,-14,59,3
11365,-1464,112,1312,-11,58,3
11370,-1472,104,1336,-7,61,5
11375,-1464,120,1320,-5,61,4
11380,-1456,104,1312,-4,62,4
11385,-1472,136,1328,-3,64,2
11390,-1488,128,1304,-3,64,3
11395,-1496,144,1288,-4,64,1
11400,-1480,128,1304,-5,62,2
11405,-1464,120,1304,-5,61,-2
11410,-1456,136,1296,-7,60,-1
11415,-1472,136,1312,-11,58,-5
11420,-1472,136,1320,-13,54,-4
11425,-1464,144,1336,-17,54,-8
11430,-1488,120,1328,-17,51,-6
11435,-1496,144,1336,-20,50,-10
11440,-1488,120,1320,-21,49,-7
11445,-1472,128,1328,-21,50,-11
11450,-1480,144,1312,-21,49,-9
11455,-1480,120,1336,-20,48,-11
11460,-1464,120,1320,-20,47,-8
11465,-1464,120,1304,-18,49,-10
11470,-1464,112,1320,-17,49,-8
11475,-1472,152,1312,-16,51,-8
11480,-1480,112,1312,-16,51,-6
11485,-1472,112,1320,-15,53,-7
11490,-1456,104,1312,-13,53,-4
11495,-1464,104,1344,-13,51,-7
11500,-1488,136,1296,-16,53,-4
11505,-1440,112,1312,-17,53,-4
11510,-1480,128,1312,-16,53,-2
11515,-1472,120,1320,-16,52,-5
11520,-1472,136,1344,-14,54,-2
11525,-1480,128,1320,-15,52,-3
11530,-1448,120,1336,-14,53,-3
11535,-1456,128,1304,-14,51,-5
11540,-1456,128,1320,-12,51,-4
11545,-1440,128,1344,-13,50,-7
11550,-1472,136,1368,-14,51,-6
11555,-1456,112,1296,-14,52,-7
11560,-1456,104,1312,-14,53,-6
11565,-1456,104,1312,-14,55,-6
11570,-1480,112,1344,-14,56,-5
11575,-1480,112,1304,-15,56,-7
11580,-1464,104,1328,-15,57,-6
11585,-1480,136,1328,-15,57,-8
11590,-1480,120,1328,-16,57,-6
11595,-1480,128,1336,-19,58,-6
11600,-1488,128,1328,-18,60,-5
11605,-1464,104,1328,-19,58,-6
11610,-1464,112,1320,-19,59,-5
11615,-1464,112,1320,-19,57,-6
11620,-1464,120,1312,-19,57,-4
11625,-1456,112,1320,-18,58,-5
11630,-1480,120,1320,-17,58,-3
11635,-1472,112,1296,-15,58,-4
11640,-1456,112,1320,-12,55,-4
11645,-1480,128,1344,-11,55,-3
11650,-1464,136,1328,-11,54,-2
11655,-1480,88,1320,-13,52,-3
11660,-1488,136,1296,-15,51,-2
11665,-1488,128,1304,-16,50,-4
11670,-1472,128,1336,-18,50,-3
11675,-1472,160,1312,-22,48,-4
11680,-1464,128,1328,-24,48,-5
11685,-1472,128,1344,-27,49,-5
11690,-1440,120,1320,-28,48,-6
11695,-1448,112,1320,-29,47,-7
11700,-1488,136,1328,-28,46,-7
11705,-1480,144,1304,-28,45,-8
11710,-1504,144,1328,-26,45,-9
11715,-1464,104,1344,-27,44,-10
11720,-1472,120,1328,-26,44,-9
11725,-1448,128,1320,-26,46,-10
11730,-1472,120,1328,-25,46,-9
11735,-1480,120,1344,-26,49,-8
11740,-1448,112,1328,-26,51,-10
11745,-1480,112,1336,-25,51,-7
11750,-1456,120,1320,-25,52,-9
11755,-1464,112,1344,-23,51,-7
11760,-1456,104,1320,-20,52,-6
11765,-1464,136,1336,-17,53,-5
11770,-1456,112,1344,-16,53,-5
11775,-1480,120,1312,-17,54,-5
11780,-1464,128,1328,-15,55,-6
11785,-1472,136,1328,-15,58,-4
11790,-1464,128,1344,-16,59,-7
11795,-1480,120,1360,-19,59,-6
11800,-1464,128,1312,-19,59,-6
11805,-1464,104,1328,-23,59,-5
11810,-1456,104,1352,-25,58,-6
11815,-1448,80,1320,-23,57,-4
11820,-1488,104,1304,-20,58,-5
11825,-1472,120,1328,-13,57,-4
11830,-1480,112,1328,-9,56,-7
11835,-1456,104,1304,-9,56,-6
11840,-1480,120,1336,-8,57,-9
11845,-1480,136,1336,-9,56,-8
11850,-1464,136,1344,-11,58,-10
11855,-1456,120,1344,-12,59,-8
11860,-1464,120,1320,-11,59,-9
11865,-1464,152,1328,-11,60,-6
11870,-1464,120,1352,-10,60,-6
11875,-1464,160,1328,-10,58,-4
11880,-1464,112,1296,-13,59,-5
11885,-1464,104,1344,-14,59,-2
11890,-1456,104,1344,-15,58,-3
11895,-1456,104,1328,-16,57,-1
11900,-1448,112,1328,-16,57,-3
11905,-1464,96,1344,-16,57,-1
11910,-1464,96,1344,-14,59,-3
11915,-1456,96,1328,-13,62,-1
11920,-1448,88,1328,-12,62,-2
11925,-1464,104,1336,-11,63,2
11930,-1464,128,1328,-11,64,0
11935,-1472,104,1336,-11,64,3
11940,-1488,144,1336,-11,63,1
11945,-1480,128,1344,-10,62,3
11950,-1464,120,1328,-9,61,1
11955,-1464,120,1312,-9,61,4
11960,-1472,136,1328,-5,62,3
11965,-1480,120,1312,-6,63,5
11970,-1472,96,1296,-6,64,2
11975,-1472,120,1312,-7,64,5
11980,-1448,112,1288,-7,66,1
11985,-1456,128,1336,-8,64,2
11990,-1464,152,1336,-8,63,-1
11995,-1448,128,1320,-8,63,0
12000,-1440,136,1328,-10,60,-3
12005,-1464,112,1328,-12,58,-3
12010,-1448,136,1320,-13,58,-8
12015,-1456,136,1296,-16,55,-6
12020,-1464,136,1336,-18,54,-10
12025,-1472,112,1344,-22,52,-8
12030,-1472,136,1344,-21,51,-11
12035,-1464,120,1320,-20,49,-10
12040,-1448,104,1344,-21,49,-13
12045,-1464,144,1312,-21,47,-11
12050,-1472,120,1328,-19,48,-13
12055,-1480,128,1328,-18,50,-11
12060,-1480,120,1344,-17,49,-12
12065,-1456,104,1312,-15,51,-10
12070,-1440,112,1352,-16,50,-11
12075,-1480,96,1344,-14,52,-8
12080,-1472,104,1320,-15,52,-10
12085,-1464,96,1328,-15,52,-7
12090,-1456,96,1312,-14,53,-9
12095,-1464,120,1328,-13,52,-7
12100,-1456,104,1296,-16,52,-9
12105,-1448,136,1328,-18,52,-6
12110,-1456,112,1304,-18,51,-8
12115,-1432,104,1336,-16,50,-4
12120,-1448,120,1312,-17,51,-6
12125,-1488,128,1336,-17,52,-4
12130,-1448,88,1328,-17,50,-6
12135,-1464,128,1304,-18,50,-4
12140,-1480,120,1320,-17,50,-6
12145,-1456,96,1352,-19,51,-5
12150,-1456,120,1328,-17,51,-9
12155,-1456,104,1312,-16,50,-6
12160,-1480,112,1320,-15,52,-7
12165,-1456,112,1336,-15,53,-7
12170,-1440,104,1352,-15,53,-9
12175,-1480,104,1320,-14,51,-8
12180,-1440,104,1320,-15,52,-9
12185,-1472,88,1336,-17,54,-7
12190,-1464,96,1360,-19,55,-9
12195,-1472,120,1336,-18,55,-9
12200,-1472,96,1320,-21,56,-10
12205,-1480,128,1360,-20,54,-8
12210,-1464,104,1304,-21,55,-9
12215,-1472,136,1344,-22,54,-6
12220,-1480,104,1312,-22,52,-7
12225,-1456,96,1312,-21,52,-6
12230,-1472,112,1360,-18,51,-5
12235,-1424,112,1336,-13,47,4
12240,-1464,104,1352,-9,35,18
12245,-1488,112,1304,-12,35,7
12250,-1496,136,1312,-14,44,-4
12255,-1480,144,1312,-13,53,-5
12260,-1488,136,1328,-15,56,-5
12265,-1464,104,1320,-18,55,-6
12270,-1456,128,1312,-20,55,-7
12275,-1488,120,1336,-20,55,-6
12280,-1448,104,1328,-22,55,-7
12285,-1456,104,1336,-23,53,-8
12290,-1440,128,1352,-23,54,-8
12295,-1448,96,1328,-25,54,-9
12300,-1448,112,1328,-24,54,-7
12305,-1456,88,1328,-23,52,-7
12310,-1448,112,1328,-22,50,-7
12315,-1464,112,1312,-21,51,-8
12320,-1464,120,1328,-19,50,-9
12325,-1472,96,1336,-19,50,-7
12330,-1448,120,1344,-19,50,-8
12335,-1456,104,1328,-17,52,-8
12340,-1440,112,1328,-17,53,-7
12345,-1464,120,1344,-17,53,-7
12350,-1456,104,1336,-18,54,-6
12355,-1456,112,1352,-17,56,-6
12360,-1440,104,1344,-17,55,-5
12365,-1448,96,1328,-17,55,-6
12370,-1432,96,1360,-14,55,-5
12375,-1472,136,1360,-16,56,-5
12380,-1448,120,1320,-15,57,-3
12385,-1448,120,1344,-15,57,-4
12390,-1464,104,1336,-16,57,-3
12395,-1464,112,1360,-16,58,-5
12400,-1448,104,1328,-18,58,-4
12405,-1456,120,1328,-21,59,-5
12410,-1448,112,1320,-21,56,-6
12415,-1456,96,1344,-21,57,-7
12420,-1456,128,1336,-20,56,-5
12425,-1448,104,1336,-20,55,-7
12430,-1456,128,1312,-18,54,-6
12435,-1472,112,1344,-17,54,-8
12440,-1480,112,1312,-16,54,-6
12445,-1472,112,1336,-16,54,-9
12450,-1464,112,1304,-15,54,-7
12455,-1440,120,1312,-16,54,-9
12460,-1480,128,1304,-19,54,-8
12465,-1472,112,1320,-19,55,-9
12470,-1448,80,1344,-21,55,-8
12475,-1448,112,1360,-21,53,-10
12480,-1456,112,1344,-22,55,-7
12485,-1480,112,1328,-22,54,-9
12490,-1480,88,1328,-22,54,-7
12495,-1480,112,1352,-21,54,-8
12500,-1440,96,1336,-22,55,-7
12505,-1456,104,1328,-22,55,-8
12510,-1464,104,1320,-23,54,-7
12515,-1448,96,1328,-23,56,-8
12520,-1448,88,1328,-24,57,-6
12525,-1472,88,1352,-24,56,-8
12530,-1464,96,1328,-26,56,-6
12535,-1472,104,1344,-26,56,-8
12540,-1456,96,1336,-25,55,-5
12545,-1488,128,1328,-23,55,-7
12550,-1464,96,1360,-19,56,-6
12555,-1440,104,1320,-16,55,-7
12560,-1456,112,1336,-13,57,-5
12565,-1456,104,1336,-13,57,-7
12570,-1472,120,1344,-13,57,-6
12575,-1456,104,1336,-14,57,-8
12580,-1472,120,1344,-14,58,-5
12585,-1496,96,1336,-14,57,-6
12590,-1472,96,1304,-12,58,-1
12595,-1456,104,1336,-11,58,-2
12600,-1464,120,1368,-11,59,3
12605,-1464,88,1344,-10,61,1
12610,-1448,80,1328,-10,62,5
12615,-1456,80,1344,-10,61,3
12620,-1424,104,1376,-10,62,5
12625,-1432,104,1328,-8,63,3
12630,-1440,112,1312,-7,63,6
12635,-1432,112,1344,-8,62,4
12640,-1440,104,1344,-6,62,5
12645,-1440,96,1328,-4,62,3
12650,-1456,104,1328,-5,62,6
12655,-1432,128,1368,-6,62,2
12660,-1448,88,1352,-5,60,6
12665,-1456,88,1352,-7,62,3
12670,-1448,96,1336,-10,59,6
12675,-1448,96,1312,-11,58,3
12680,-1480,120,1320,-13,58,6
12685,-1472,128,1328,-13,58,4
12690,-1464,112,1336,-14,60,7
12695,-1464,96,1336,-15,63,5
12700,-1448,96,1320,-15,65,8
12705,-1464,96,1312,-16,66,7
12710,-1456,104,1336,-17,67,9
12715,-1440,96,1352,-18,67,8
12720,-1464,104,1328,-18,68,11
12725,-1456,96,1320,-17,67,8
12730,-1472,152,1368,-17,64,9
12735,-1456,96,1328,-16,64,6
12740,-1480,128,1312,-15,62,6
12745,-1480,120,1336,-15,61,5
12750,-1456,112,1352,-17,59,4
12755,-1488,128,1368,-17,59,3
12760,-1472,128,1328,-16,57,3
12765,-1456,120,1336,-17,59,1
12770,-1464,144,1344,-16,56,3
12775,-1464,136,1360,-16,56,1
12780,-1456,112,1336,-17,57,3
12785,-1448,112,1352,-15,58,1
12790,-1472,96,1344,-14,59,4
12795,-1464,96,1328,-11,62,3
12800,-1464,96,1320,-12,60,6
12805,-1456,104,1344,-12,60,5
12810,-1472,120,1360,-13,60,7
12815,-1448,96,1352,-14,61,6
12820,-1448,88,1328,-14,61,6
12825,-1448,104,1352,-13,62,6
12830,-1448,112,1328,-16,61,9
12835,-1448,128,1344,-16,60,7
12840,-1472,120,1328,-17,60,10
12845,-1448,112,1312,-18,60,10
12850,-1464,112,1336,-18,59,9
12855,-1464,120,1312,-17,58,9
12860,-1464,104,1320,-18,58,8
12865,-1440,88,1352,-18,59,9
12870,-1464,112,1344,-17,58,9
12875,-1480,96,1344,-18,59,8
12880,-1464,96,1328,-17,58,8
12885,-1464,112,1328,-15,59,6
12890,-1464,128,1304,-14,60,6
12895,-1456,88,1304,-13,61,6
12900,-1480,128,1320,-13,62,7
12905,-1456,104,1344,-14,63,6
12910,-1440,112,1344,-13,63,7
12915,-1480,112,1352,-15,65,6
12920,-1464,120,1376,-16,66,6
12925,-1472,96,1320,-16,66,6
12930,-1472,104,1312,-19,67,6
12935,-1480,96,1368,-19,67,6
12940,-1464,104,1344,-19,66,6
12945,-1464,104,1336,-20,67,7
12950,-1456,128,1328,-20,66,8
12955,-1488,136,1304,-19,66,9
12960,-1472,96,1368,-18,66,9
12965,-1456,112,1336,-17,65,10
12970,-1464,96,1352,-17,68,11
12975,-1464,120,1320,-15,67,11
12980,-1472,104,1344,-15,67,10
12985,-1472,120,1328,-15,67,11
12990,-1440,120,1312,-14,67,10
12995,-1456,128,1312,-12,67,11
13000,-1456,136,1336,-13,67,9
13005,-1464,96,1344,-14,68,10
13010,-1440,112,1320,-15,66,9
13015,-1456,112,1328,-16,67,10
13020,-1456,112,1336,-17,66,8
13025,-1440,104,1360,-17,65,8
13030,-1464,120,1320,-18,65,6
13035,-1448,104,1360,-18,64,8
13040,-1464,144,1344,-17,64,6
13045,-1456,112,1344,-17,63,7
13050,-1464,112,1344,-18,65,5
13055,-1464,128,1336,-18,64,6
13060,-1448,128,1344,-16,66,4
13065,-1464,120,1336,-16,67,5
13070,-1456,104,1336,-14,67,4
13075,-1440,120,1328,-14,67,7
13080,-1440,104,1352,-13,67,5
13085,-1464,112,1320,-12,68,6
13090,-1472,112,1376,-12,69,5
13095,-1440,96,1336,-10,69,6
13100,-1456,128,1328,-9,69,5
13105,-1440,112,1344,-9,71,6
13110,-1472,128,1328,-9,71,5
13115,-1480,96,1352,-9,72,7
13120,-1456,128,1320,-9,71,5
13125,-1456,112,1320,-10,71,6
13130,-1464,120,1360,-9,71,4
13135,-1464,104,1344,-11,72,6
13140,-1472,136,1328,-12,72,3
13145,-1432,112,1360,-12,70,4
13150,-1464,128,1336,-14,71,3
13155,-1456,104,1328,-14,71,6
13160,-1480,136,1368,-14,71,4
13165,-1472,104,1344,-16,71,6
13170,-1464,128,1320,-16,70,3
13175,-1480,136,1328,-14,70,5
13180,-1448,96,1296,-14,69,5
13185,-1464,128,1312,-12,68,6
13190,-1448,96,1328,-12,67,5
13195,-1448,112,1336,-12,67,7
13200,-1472,136,1336,-11,68,4
13205,-1464,104,1336,-12,68,5
13210,-1480,120,1336,-13,68,3
13215,-1488,120,1328,-14,68,5
13220,-1448,120,1296,-15,68,3
13225,-1480,104,1336,-14,68,6
13230,-1464,112,1352,-15,69,3
13235,-1464,104,1336,-15,69,5
13240,-1448,136,1320,-15,70,4
13245,-1472,104,1368,-17,71,6
13250,-1456,120,1328,-16,72,4
13255,-1464,136,1344,-17,70,7
13260,-1472,120,1344,-17,70,4
13265,-1464,120,1320,-17,70,7
13270,-1448,128,1336,-18,70,5
13275,-1480,128,1360,-16,71,7
13280,-1472,120,1336,-17,69,5
13285,-1464,120,1360,-18,68,8
13290,-1456,96,1344,-21,67,4
13295,-1472,96,1328,-19,67,8
13300,-1480,104,1312,-18,66,7
13305,-1472,96,1320,-14,66,8
13310,-1464,120,1304,-9,66,6
13315,-1480,120,1304,-5,66,5
13320,-1488,112,1312,-2,67,4
13325,-1480,128,1304,-1,68,5
13330,-1456,136,1344,0,67,4
13335,-1448,128,1320,-2,67,5
13340,-1448,136,1320,-2,67,2
13345,-1456,112,1320,-2,66,3
13350,-1472,128,1336,-2,68,1
13355,-1472,136,1328,-3,68,2
13360,-1464,144,1336,-4,66,-1
13365,-1464,136,1312,-5,64,0
13370,-1472,104,1320,-8,65,-2
13375,-1480,136,1336,-13,65,-1
13380,-1456,96,1328,-15,66,-3
13385,-1440,112,1336,-17,67,0
13390,-1448,96,1352,-17,69,-1
13395,-1456,104,1352,-16,70,1
13400,-1480,72,1344,-14,73,2
13405,-1488,80,1408,-10,75,4
13410,-1480,104,1360,-8,76,4
13415,-1456,104,1360,-3,77,6
13420,-1472,96,1360,0,77,4
13425,-1456,112,1336,0,76,7
13430,-1480,112,1320,2,76,5
13435,-1464,96,1360,4,75,6
13440,-1464,112,1328,5,74,4
13445,-1456,104,1304,7,72,4
13450,-1472,128,1280,5,70,3
13455,-1472,128,1328,5,71,3
13460,-1472,136,1320,5,70,0
13465,-1456,144,1320,2,72,0
13470,-1480,128,1344,0,73,-2
13475,-1456,128,1320,-1,73,-3
13480,-1480,136,1304,-2,72,-5
13485,-1480,120,1312,-4,72,-7
13490,-1472,144,1312,-6,71,-6
13495,-1456,128,1304,-7,69,-8
13500,-1504,152,1312,-9,66,-7
13505,-1472,144,1312,-11,64,-9
13510,-1472,160,1320,-13,61,-11
13515,-1480,128,1312,-15,60,-10
13520,-1464,96,1328,-17,59,-12
13525,-1480,168,1328,-17,58,-11
13530,-1488,136,1328,-17,56,-13
13535,-1464,128,1328,-17,55,-13
13540,-1472,112,1344,-17,56,-12
13545,-1472,104,1320,-15,55,-11
13550,-1480,128,1336,-13,57,-11
13555,-1456,120,1336,-12,57,-10
13560,-1472,112,1320,-11,59,-8
13565,-1472,104,1328,-10,59,-10
13570,-1544,144,1424,-10,58,-9
13575,-1496,48,1320,-9,60,-9
13580,-1472,96,1232,-9,60,-8
13585,-1552,152,1216,-8,59,-8
13590,-1528,104,1336,-8,58,-6
13595,-1456,144,1392,-8,56,-7
13600,-1368,72,1328,-11,57,-7
13605,-1464,128,1328,-13,57,-7
13610,-1464,120,1344,-12,55,-6
13615,-1488,120,1312,-12,54,-6
13620,-1480,104,1296,-11,53,-6
13625,-1512,176,1312,-10,52,-7
13630,-1472,120,1336,-10,52,-7
13635,-1464,128,1328,-10,50,-8
13640,-1472,144,1320,-10,50,-8
13645,-1464,112,1312,-11,51,-10
13650,-1496,112,1320,-11,51,-9
13655,-1464,120,1328,-11,52,-11
13660,-1448,88,1328,-13,53,-10
13665,-1472,112,1320,-12,53,-10
13670,-1480,104,1312,-14,53,-9
13675,-1464,88,1312,-15,54,-11
13680,-1480,128,1336,-16,55,-10
13685,-1488,104,1352,-17,55,-12
13690,-1472,120,1312,-17,55,-9
13695,-1456,104,1328,-18,55,-10
13700,-1480,112,1344,-17,55,-8
13705,-1480,120,1320,-15,56,-9
13710,-1472,112,1328,-13,56,-7
13715,-1472,112,1320,-13,56,-8
13720,-1464,120,1336,-10,56,-6
13725,-1472,120,1328,-10,58,-8
13730,-1488,136,1320,-9,59,-5
13735,-1472,136,1320,-10,58,-7
13740,-1456,120,1336,-9,59,-7
13745,-1472,104,1288,-9,59,-7
13750,-1456,144,1312,-11,58,-7
13755,-1448,104,1328,-11,56,-8
13760,-1480,120,1328,-14,55,-6
13765,-1448,144,1336,-16,56,-9
13770,-1472,152,1336,-16,55,-6
13775,-1472,144,1304,-18,53,-10
13780,-1464,120,1320,-20,52,-7
13785,-1448,112,1336,-20,52,-10
13790,-1432,120,1368,-19,52,-8
13795,-1472,120,1312,-19,51,-11
13800,-1456,128,1320,-18,51,-10
13805,-1472,104,1336,-18,51,-12
13810,-1472,128,1344,-16,52,-9
13815,-1472,112,1360,-16,53,-13
13820,-1456,136,1376,-15,54,-10
13825,-1472,120,1328,-14,54,-13
13830,-1456,136,1320,-14,54,-9
13835,-1472,136,1312,-13,54,-11
13840,-1432,112,1312,-14,55,-10
13845,-1464,128,1336,-14,55,-11
13850,-1472,128,1344,-14,55,-10
13855,-1464,104,1312,-14,55,-11
13860,-1464,120,1352,-15,55,-10
13865,-1472,128,1344,-14,54,-12
13870,-1464,104,1320,-13,53,-9
13875,-1464,120,1304,-14,55,-12
13880,-1480,144,1312,-13,55,-9
13885,-1488,120,1320,-12,54,-13
13890,-1464,120,1312,-12,54,-11
13895,-1456,112,1312,-15,54,-13
13900,-1472,112,1312,-15,55,-12
13905,-1448,120,1328,-17,54,-14
13910,-1464,104,1368,-20,53,-13
13915,-1472,128,1328,-22,53,-15
13920,-1464,72,1336,-22,50,-12
13925,-1480,128,1344,-23,53,-15
13930,-1448,104,1352,-22,53,-12
13935,-1472,112,1328,-22,53,-12
13940,-1464,104,1344,-22,52,-10
13945,-1456,96,1328,-22,55,-12
13950,-1456,104,1336,-22,55,-10
13955,-1448,112,1336,-22,55,-12
13960,-1464,120,1328,-23,56,-10
13965,-1472,112,1352,-23,58,-11
13970,-1472,112,1336,-22,56,-8
13975,-1448,104,1336,-23,57,-10
13980,-1456,88,1368,-25,55,-8
13985,-1448,96,1320,-27,56,-10
13990,-1480,104,1296,-25,57,-7
13995,-1472,96,1320,-21,57,-8
14000,-1464,88,1320,-15,57,-7
14005,-1464,104,1312,-10,56,-9
14010,-1472,104,1288,-9,56,-9
14015,-1464,112,1344,-8,57,-13
14020,-1472,112,1328,-9,57,-10
14025,-1472,128,1320,-10,56,-13
14030,-1472,128,1328,-11,59,-12
14035,-1472,112,1336,-10,59,-12
14040,-1464,112,1328,-11,58,-10
14045,-1472,120,1328,-10,59,-10
14050,-1480,112,1344,-8,60,-8
14055,-1472,104,1328,-7,58,-8
14060,-1504,112,1344,-4,57,-7
14065,-1472,112,1320,-5,56,-8
14070,-1472,104,1328,-8,56,-6
14075,-1448,88,1328,-7,56,-9
14080,-1456,88,1336,-9,56,-6
14085,-1448,104,1336,-9,56,-7
14090,-1456,112,1328,-7,57,-6
14095,-1440,104,1344,-8,60,-6
14100,-1464,104,1344,-7,61,-4
14105,-1456,96,1328,-6,62,-4
14110,-1440,112,1312,-5,63,-2
14115,-1448,96,1376,-5,61,-4
14120,-1480,120,1344,-5,60,-3
14125,-1472,96,1344,-4,59,-4
14130,-1456,104,1336,-4,58,-4
14135,-1456,104,1344,-5,57,-5
14140,-1472,96,1304,-4,56,-5
14145,-1472,104,1328,-5,55,-7
14150,-1464,120,1344,-7,56,-7
14155,-1432,96,1312,-8,55,-8
14160,-1464,120,1304,-9,56,-8
14165,-1456,112,1328,-10,58,-9
14170,-1464,112,1320,-13,58,-8
14175,-1432,96,1320,-14,58,-8
14180,-1480,136,1328,-18,58,-10
14185,-1440,120,1352,-18,58,-10
14190,-1464,128,1344,-19,56,-11
14195,-1472,120,1336,-20,56,-12
14200,-1456,120,1344,-21,56,-12
14205,-1480,136,1320,-22,54,-12
14210,-1464,128,1312,-21,52,-12
14215,-1464,120,1328,-21,51,-14
14220,-1480,112,1320,-21,52,-15
14225,-1472,112,1312,-18,52,-14
14230,-1464,128,1312,-16,51,-14
14235,-1464,112,1328,-16,49,-13
14240,-1456,120,1344,-13,50,-13
14245,-1472,96,1328,-12,50,-10
14250,-1456,104,1336,-13,52,-11
14255,-1456,120,1336,-11,52,-11
14260,-1472,104,1312,-10,52,-11
14265,-1456,120,1336,-10,51,-11
14270,-1456,96,1360,-10,51,-10
14275,-1448,88,1328,-10,50,-9
14280,-1472,112,1304,-10,50,-10
14285,-1472,104,1320,-8,50,-8
14290,-1480,112,1328,-12,49,-9
14295,-1488,112,1328,-15,48,-8
14300,-1464,112,1336,-17,49,-8
14305,-1472,120,1344,-17,48,-6
14310,-1480,120,1336,-16,49,-7
14315,-1432,96,1360,-17,47,-4
14320,-1432,104,1360,-15,45,2
14325,-1480,88,1320,-14,38,7
14330,-1472,96,1312,-15,37,-2
14335,-1480,112,1360,-15,45,-5
14340,-1464,96,1320,-14,48,-7
14345,-1464,104,1360,-14,50,-5
14350,-1448,112,1328,-14,49,-7
14355,-1456,112,1328,-13,49,-5
14360,-1456,112,1328,-12,49,-6
14365,-1472,128,1336,-13,51,-5
14370,-1464,128,1336,-13,51,-8
14375,-1456,120,1344,-13,53,-6
14380,-1472,112,1352,-14,53,-10
14385,-1464,120,1336,-16,53,-7
14390,-1456,96,1312,-16,53,-9
14395,-1464,104,1328,-16,53,-7
14400,-1464,104,1328,-16,50,-9
14405,-1480,88,1328,-15,51,-7
14410,-1464,112,1328,-16,51,-9
14415,-1440,104,1352,-16,51,-5
14420,-1472,120,1344,-16,50,-9
14425,-1464,112,1344,-15,50,-7
14430,-1464,112,1312,-16,50,-10
14435,-1472,112,1296,-17,51,-6
14440,-1472,128,1368,-17,51,-9
14445,-1448,112,1336,-18,51,-7
14450,-1480,128,1320,-20,51,-9
14455,-1440,96,1328,-22,50,-6
14460,-1472,128,1336,-24,51,-8
14465,-1432,104,1328,-26,50,-6
14470,-1480,128,1328,-27,50,-9
14475,-1456,112,1320,-27,50,-6
14480,-1464,120,1336,-27,49,-9
14485,-1456,128,1352,-26,49,-6
14490,-1456,104,1360,-25,48,-8
14495,-1456,96,1336,-25,48,-7
14500,-1448,88,1344,-24,48,-9
14505,-1456,96,1344,-23,49,-8
14510,-1456,88,1344,-21,49,-11
14515,-1464,88,1320,-20,51,-8
14520,-1480,112,1328,-20,50,-9
14525,-1456,88,1344,-18,52,-7
14530,-1448,112,1328,-16,51,-10
14535,-1480,104,1344,-16,51,-8
14540,-1472,128,1328,-15,52,-10
14545,-1456,136,1384,-15,53,-7
14550,-1448,88,1320,-16,53,-10
14555,-1440,104,1344,-13,54,-6
14560,-1432,80,1336,-13,53,-9
14565,-1448,120,1344,-14,54,-6
14570,-1464,112,1336,-15,53,-8
14575,-1456,120,1344,-15,53,-7
14580,-1448,128,1344,-17,52,-9
14585,-1464,104,1376,-18,52,-6
14590,-1464,104,1344,-19,51,-8
14595,-1440,120,1328,-19,52,-6
14600,-1456,96,1336,-21,50,-8
14605,-1464,96,1344,-21,51,-7
14610,-1456,104,1320,-24,51,-8
14615,-1480,104,1336,-24,50,-7
14620,-1456,120,1336,-24,51,-9
14625,-1472,88,1344,-25,52,-7
14630,-1464,128,1312,-25,50,-9
14635,-1448,96,1360,-24,51,-8
14640,-1456,104,1344,-24,53,-9
14645,-1456,96,1320,-24,52,-7
14650,-1472,104,1336,-24,54,-8
14655,-1472,104,1336,-23,55,-6
14660,-1456,96,1344,-23,54,-8
14665,-1472,88,1344,-21,54,-5
14670,-1456,96,1344,-21,55,-7
14675,-1472,96,1312,-21,56,-5
14680,-1480,112,1344,-19,55,-5
14685,-1456,80,1320,-19,54,-4
14690,-1464,96,1344,-17,54,-6
14695,-1440,88,1328,-19,54,-5
14700,-1456,120,1336,-19,55,-5
14705,-1456,96,1328,-18,55,-4
14710,-1464,104,1368,-18,55,-5
14715,-1456,96,1344,-18,55,-3
14720,-1464,96,1320,-19,54,-5
14725,-1456,112,1328,-19,54,-4
14730,-1472,96,1328,-19,54,-5
14735,-1464,104,1344,-19,55,-5
14740,-1448,104,1360,-19,54,-3
14745,-1440,112,1336,-17,50,0
14750,-1424,80,1320,-16,42,12
14755,-1480,80,1336,-14,32,17
14760,-1488,120,1336,-14,37,4
14765,-1472,80,1352,-15,49,-3
14770,-1464,120,1344,-16,54,-6
14775,-1448,104,1344,-19,54,-5
14780,-1464,120,1320,-20,53,-4
14785,-1440,96,1344,-18,51,-4
14790,-1440,96,1352,-20,51,-4
14795,-1464,112,1336,-21,51,-3
14800,-1448,104,1320,-22,53,-4
14805,-1448,88,1312,-23,53,-4
14810,-1472,88,1344,-25,54,-5
14815,-1480,96,1312,-26,55,-5
14820,-1456,104,1344,-27,55,-6
14825,-1456,88,1328,-27,55,-6
14830,-1456,112,1368,-26,54,-5
14835,-1464,96,1360,-25,55,-5
14840,-1440,96,1328,-23,55,-4
14845,-1440,112,1328,-23,55,-5
14850,-1456,96,1344,-24,56,-4
14855,-1440,120,1312,-23,57,-5
14860,-1448,88,1360,-23,58,-3
14865,-1456,88,1344,-24,56,-4
14870,-1432,80,1360,-26,56,-2
14875,-1448,104,1376,-26,56,-4
14880,-1464,88,1336,-26,58,-4
14885,-1464,96,1336,-25,58,-6
14890,-1448,72,1336,-21,58,-3
14895,-1472,104,1344,-19,59,-4
14900,-1440,80,1336,-16,59,-3
14905,-1448,88,1352,-15,59,-4
14910,-1464,96,1328,-14,60,-4
14915,-1448,104,1344,-14,60,-7
14920,-1480,88,1328,-15,62,-4
14925,-1472,80,1336,-15,63,-5
14930,-1456,80,1336,-15,63,-2
14935,-1464,80,1336,-12,63,-3
14940,-1432,80,1352,-9,64,0
14945,-1448,80,1368,-7,63,0
14950,-1480,88,1344,-5,63,3
14955,-1448,88,1328,-3,63,3
14960,-1464,80,1376,-1,62,4
14965,-1432,80,1328,0,63,1
14970,-1456,104,1336,2,63,3
14975,-1432,104,1328,5,63,0
14980,-1432,88,1336,7,64,1
14985,-1464,112,1328,7,61,-1
14990,-1432,96,1368,8,61,1
14995,-1448,80,1344,9,60,-1
